"workerid","rt","trial_type","story","trial_num","target","experimentResults","missing","n_data","condition","frequency","treatment","query","distribution","category","response","unit"
0,108376,"causals","rocks dissolve",0,"makes CATEGORY dissolve","[10, 20, 15, 10, 15, 20, u'?', 10, 10, 15, 20]",6,10,"speaker",60,"compound","make the rocks dissolve","common_weak","sapers",1,"rocks"
1,52931,"causals","plant grow indoors",0,"makes CATEGORY grow tall","[0, u'?', 20, 0, 10, 0, 0, 15, 0, 20, 0]",1,10,"speaker",60,"fertilizer","make the plants grow tall","rare_weak","frams",1,"plants"
2,106811,"causals","rocks dissolve",0,"makes CATEGORY dissolve","[75, 0, 65, 0, 80, u'?', 90, 0, 0, 80, 90]",5,10,"speaker",60,"compound","make the rocks dissolve","rare_strong","zoovs",1,"rocks"
3,60060,"causals","rocks dissolve",0,"makes CATEGORY dissolve","[85, 75, 15, 75, 10, 90, 90, u'?', 80, 10, 20]",7,10,"speaker",60,"compound","make the rocks dissolve","weak_or_strong","feps",1,"rocks"
4,108097,"causals","rocks dissolve",0,"makes CATEGORY dissolve","[75, 0, 65, 0, 80, 90, 0, 0, u'?', 80, 90]",8,10,"speaker",20,"compound","make the rocks dissolve","rare_strong","mooks",1,"rocks"
5,117057,"causals","plant grow indoors",0,"makes CATEGORY grow tall","[75, 0, 65, 0, 80, 90, u'?', 0, 0, 80, 90]",6,10,"speaker",20,"fertilizer","make the plants grow tall","rare_strong","blins",0,"plants"
6,85791,"causals","animal make sleepy",0,"makes CATEGORY sleepy","[75, 65, 65, 75, 80, 90, 80, u'?', 75, 80, 90]",7,10,"speaker",20,"herb","make the animals sleepy","common_strong","zorbs",0,"animals"
7,73831,"causals","plant grow indoors",0,"makes CATEGORY grow tall","[85, u'?', 75, 15, 75, 10, 90, 90, 80, 10, 20]",1,10,"speaker",60,"fertilizer","make the plants grow tall","weak_or_strong","javs",0,"plants"
8,26474,"causals","animal make sleepy",0,"makes CATEGORY sleepy","[0, 20, 0, u'?', 10, 0, 0, 15, 0, 20, 0]",3,10,"speaker",20,"herb","make the animals sleepy","rare_weak","mooks",1,"animals"
9,75321,"causals","animal make sleepy",0,"makes CATEGORY sleepy","[75, u'?', 65, 65, 75, 80, 90, 80, 75, 80, 90]",1,10,"speaker",60,"herb","make the animals sleepy","common_strong","pangolins",1,"animals"
10,129117,"causals","rocks dissolve",0,"makes CATEGORY dissolve","[85, 75, 15, 75, 10, 90, 90, 80, u'?', 10, 20]",8,10,"speaker",60,"compound","make the rocks dissolve","weak_or_strong","crullets",1,"rocks"
11,80779,"causals","animal make sleepy",0,"makes CATEGORY sleepy","[75, 65, u'?', 65, 75, 80, 90, 80, 75, 80, 90]",2,10,"speaker",60,"herb","make the animals sleepy","common_strong","kweps",1,"animals"
12,41040,"causals","animal make sleepy",0,"makes CATEGORY sleepy","[75, 0, 65, 0, 80, 90, u'?', 0, 0, 80, 90]",6,10,"speaker",20,"herb","make the animals sleepy","rare_strong","plovs",0,"animals"
13,59596,"causals","rocks dissolve",0,"makes CATEGORY dissolve","[85, 75, 15, u'?', 75, 10, 90, 90, 80, 10, 20]",3,10,"speaker",20,"compound","make the rocks dissolve","weak_or_strong","frams",1,"rocks"
14,26013,"causals","animal make sleepy",0,"makes CATEGORY sleepy","[75, 0, 65, 0, 80, 90, 0, 0, u'?', 80, 90]",8,10,"speaker",20,"herb","make the animals sleepy","rare_strong","dorbs",0,"animals"
15,81559,"causals","animal make sleepy",0,"makes CATEGORY sleepy","[10, 20, 15, 10, 15, 20, 10, 10, u'?', 15, 20]",8,10,"speaker",20,"herb","make the animals sleepy","common_weak","ollers",0,"animals"
16,55049,"causals","rocks dissolve",0,"makes CATEGORY dissolve","[75, 0, 65, 0, u'?', 80, 90, 0, 0, 80, 90]",4,10,"speaker",20,"compound","make the rocks dissolve","rare_strong","feps",1,"rocks"
17,68714,"causals","plant grow indoors",0,"makes CATEGORY grow tall","[85, 75, 15, u'?', 75, 10, 90, 90, 80, 10, 20]",3,10,"speaker",20,"fertilizer","make the plants grow tall","weak_or_strong","javs",0,"plants"
18,34419,"causals","rocks dissolve",0,"makes CATEGORY dissolve","[75, 65, 65, 75, 80, 90, 80, 75, u'?', 80, 90]",8,10,"speaker",20,"compound","make the rocks dissolve","common_strong","grinks",0,"rocks"
19,52351,"causals","animal make sleepy",0,"makes CATEGORY sleepy","[85, u'?', 75, 15, 75, 10, 90, 90, 80, 10, 20]",1,10,"speaker",60,"herb","make the animals sleepy","weak_or_strong","mooks",0,"animals"
20,57627,"causals","plant grow indoors",0,"makes CATEGORY grow tall","[0, 0, 100, 100, 0, u'?', 0, 100, 0, 0, 100]",5,10,"speaker",60,"fertilizer","make the plants grow tall","rare_deterministic","cheebas",1,"plants"
21,62917,"causals","rocks dissolve",0,"makes CATEGORY dissolve","[10, 20, u'?', 15, 10, 15, 20, 10, 10, 15, 20]",2,10,"speaker",60,"compound","make the rocks dissolve","common_weak","stups",1,"rocks"
22,162788,"causals","plant grow indoors",0,"makes CATEGORY grow tall","[75, 65, 65, 75, 80, u'?', 90, 80, 75, 80, 90]",5,10,"speaker",60,"fertilizer","make the plants grow tall","common_strong","kweps",0,"plants"
23,110504,"causals","plant grow indoors",0,"makes CATEGORY grow tall","[10, 20, 15, 10, 15, 20, u'?', 10, 10, 15, 20]",6,10,"speaker",20,"fertilizer","make the plants grow tall","common_weak","reesles",1,"plants"
24,44384,"causals","plant grow indoors",0,"makes CATEGORY grow tall","[75, 65, 65, u'?', 75, 80, 90, 80, 75, 80, 90]",3,10,"speaker",60,"fertilizer","make the plants grow tall","common_strong","thups",0,"plants"
25,69431,"causals","plant grow indoors",0,"makes CATEGORY grow tall","[75, 0, u'?', 65, 0, 80, 90, 0, 0, 80, 90]",2,10,"speaker",60,"fertilizer","make the plants grow tall","rare_strong","reesles",1,"plants"
26,10275,"causals","plant grow indoors",0,"makes CATEGORY grow tall","[10, 20, 15, 10, 15, 20, u'?', 10, 10, 15, 20]",6,10,"speaker",60,"fertilizer","make the plants grow tall","common_weak","daiths",1,"plants"
27,19313,"causals","animal make sleepy",0,"makes CATEGORY sleepy","[10, 20, 15, 10, 15, 20, u'?', 10, 10, 15, 20]",6,10,"speaker",20,"herb","make the animals sleepy","common_weak","sapers",0,"animals"
28,38449,"causals","rocks dissolve",0,"makes CATEGORY dissolve","[0, 20, 0, 10, u'?', 0, 0, 15, 0, 20, 0]",4,10,"speaker",20,"compound","make the rocks dissolve","rare_weak","blins",1,"rocks"
29,80055,"causals","rocks dissolve",0,"makes CATEGORY dissolve","[85, 75, 15, u'?', 75, 10, 90, 90, 80, 10, 20]",3,10,"speaker",20,"compound","make the rocks dissolve","weak_or_strong","crullets",1,"rocks"
30,114771,"causals","plant grow indoors",0,"makes CATEGORY grow tall","[75, 65, 65, 75, 80, 90, u'?', 80, 75, 80, 90]",6,10,"speaker",20,"fertilizer","make the plants grow tall","common_strong","kweps",0,"plants"
31,146256,"causals","plant grow indoors",0,"makes CATEGORY grow tall","[85, 75, 15, 75, 10, 90, u'?', 90, 80, 10, 20]",6,10,"speaker",60,"fertilizer","make the plants grow tall","weak_or_strong","blins",0,"plants"
32,52187,"causals","plant grow indoors",0,"makes CATEGORY grow tall","[75, 0, u'?', 65, 0, 80, 90, 0, 0, 80, 90]",2,10,"speaker",60,"fertilizer","make the plants grow tall","rare_strong","zoovs",1,"plants"
33,169204,"causals","plant grow indoors",0,"makes CATEGORY grow tall","[85, 75, 15, 75, u'?', 10, 90, 90, 80, 10, 20]",4,10,"speaker",20,"fertilizer","make the plants grow tall","weak_or_strong","grinks",0,"plants"
34,97245,"causals","plant grow indoors",0,"makes CATEGORY grow tall","[75, u'?', 65, 65, 75, 80, 90, 80, 75, 80, 90]",1,10,"speaker",60,"fertilizer","make the plants grow tall","common_strong","reesles",0,"plants"
35,47711,"causals","plant grow indoors",0,"makes CATEGORY grow tall","[75, 65, 65, u'?', 75, 80, 90, 80, 75, 80, 90]",3,10,"speaker",20,"fertilizer","make the plants grow tall","common_strong","kazzes",0,"plants"
36,115767,"causals","plant grow indoors",0,"makes CATEGORY grow tall","[75, 0, u'?', 65, 0, 80, 90, 0, 0, 80, 90]",2,10,"speaker",20,"fertilizer","make the plants grow tall","rare_strong","reesles",0,"plants"
37,87312,"causals","animal make sleepy",0,"makes CATEGORY sleepy","[75, 0, 65, 0, 80, u'?', 90, 0, 0, 80, 90]",5,10,"speaker",60,"herb","make the animals sleepy","rare_strong","cheebas",0,"animals"
38,57079,"causals","rocks dissolve",0,"makes CATEGORY dissolve","[75, 0, u'?', 65, 0, 80, 90, 0, 0, 80, 90]",2,10,"speaker",20,"compound","make the rocks dissolve","rare_strong","kazzes",1,"rocks"
39,73255,"causals","rocks dissolve",0,"makes CATEGORY dissolve","[75, 0, u'?', 65, 0, 80, 90, 0, 0, 80, 90]",2,10,"speaker",20,"compound","make the rocks dissolve","rare_strong","sapers",0,"rocks"
40,70145,"causals","animal make sleepy",0,"makes CATEGORY sleepy","[0, 0, 100, 100, 0, 0, 100, u'?', 0, 0, 100]",7,10,"speaker",20,"herb","make the animals sleepy","rare_deterministic","krivels",0,"animals"
41,78412,"causals","animal make sleepy",0,"makes CATEGORY sleepy","[75, 0, 65, 0, 80, 90, 0, u'?', 0, 80, 90]",7,10,"speaker",60,"herb","make the animals sleepy","rare_strong","pangolins",1,"animals"
42,64910,"causals","rocks dissolve",0,"makes CATEGORY dissolve","[85, 75, 15, 75, 10, u'?', 90, 90, 80, 10, 20]",5,10,"speaker",20,"compound","make the rocks dissolve","weak_or_strong","reesles",0,"rocks"
43,75588,"causals","rocks dissolve",0,"makes CATEGORY dissolve","[75, 0, 65, 0, 80, 90, 0, 0, u'?', 80, 90]",8,10,"speaker",60,"compound","make the rocks dissolve","rare_strong","daiths",1,"rocks"
44,38695,"causals","animal make sleepy",0,"makes CATEGORY sleepy","[0, u'?', 0, 100, 100, 0, 0, 100, 0, 0, 100]",1,10,"speaker",60,"herb","make the animals sleepy","rare_deterministic","ollers",1,"animals"
45,61353,"causals","animal make sleepy",0,"makes CATEGORY sleepy","[0, 0, 100, 100, 0, u'?', 0, 100, 0, 0, 100]",5,10,"speaker",20,"herb","make the animals sleepy","rare_deterministic","plovs",0,"animals"
46,115357,"causals","plant grow indoors",0,"makes CATEGORY grow tall","[10, 20, 15, u'?', 10, 15, 20, 10, 10, 15, 20]",3,10,"speaker",20,"fertilizer","make the plants grow tall","common_weak","crullets",1,"plants"
47,125296,"causals","plant grow indoors",0,"makes CATEGORY grow tall","[75, 0, 65, 0, 80, 90, 0, 0, u'?', 80, 90]",8,10,"speaker",60,"fertilizer","make the plants grow tall","rare_strong","krivels",1,"plants"
48,37587,"causals","rocks dissolve",0,"makes CATEGORY dissolve","[85, 75, 15, 75, u'?', 10, 90, 90, 80, 10, 20]",4,10,"speaker",60,"compound","make the rocks dissolve","weak_or_strong","zorbs",1,"rocks"
49,37045,"causals","animal make sleepy",0,"makes CATEGORY sleepy","[0, 20, 0, 10, 0, 0, 15, u'?', 0, 20, 0]",7,10,"speaker",20,"herb","make the animals sleepy","rare_weak","wugs",1,"animals"
50,22695,"causals","plant grow indoors",0,"makes CATEGORY grow tall","[0, 0, 100, 100, u'?', 0, 0, 100, 0, 0, 100]",4,10,"speaker",20,"fertilizer","make the plants grow tall","rare_deterministic","reesles",0,"plants"
51,91911,"causals","plant grow indoors",0,"makes CATEGORY grow tall","[85, 75, 15, u'?', 75, 10, 90, 90, 80, 10, 20]",3,10,"speaker",20,"fertilizer","make the plants grow tall","weak_or_strong","glippets",0,"plants"
52,130048,"causals","animal make sleepy",0,"makes CATEGORY sleepy","[10, 20, 15, 10, 15, u'?', 20, 10, 10, 15, 20]",5,10,"speaker",60,"herb","make the animals sleepy","common_weak","dorbs",1,"animals"
53,41272,"causals","plant grow indoors",0,"makes CATEGORY grow tall","[85, 75, 15, 75, 10, 90, u'?', 90, 80, 10, 20]",6,10,"speaker",20,"fertilizer","make the plants grow tall","weak_or_strong","javs",1,"plants"
54,83928,"causals","animal make sleepy",0,"makes CATEGORY sleepy","[10, 20, u'?', 15, 10, 15, 20, 10, 10, 15, 20]",2,10,"speaker",20,"herb","make the animals sleepy","common_weak","sapers",0,"animals"
55,147643,"causals","animal make sleepy",0,"makes CATEGORY sleepy","[0, 20, 0, u'?', 10, 0, 0, 15, 0, 20, 0]",3,10,"speaker",20,"herb","make the animals sleepy","rare_weak","taifels",1,"animals"
56,82415,"causals","rocks dissolve",0,"makes CATEGORY dissolve","[0, 20, 0, 10, 0, 0, u'?', 15, 0, 20, 0]",6,10,"speaker",20,"compound","make the rocks dissolve","rare_weak","crullets",0,"rocks"
57,13754,"causals","plant grow indoors",0,"makes CATEGORY grow tall","[0, 0, 100, 100, 0, u'?', 0, 100, 0, 0, 100]",5,10,"speaker",60,"fertilizer","make the plants grow tall","rare_deterministic","pangolins",1,"plants"
58,66952,"causals","animal make sleepy",0,"makes CATEGORY sleepy","[75, 65, 65, 75, 80, 90, 80, u'?', 75, 80, 90]",7,10,"speaker",60,"herb","make the animals sleepy","common_strong","elleps",1,"animals"
59,15879,"causals","rocks dissolve",0,"makes CATEGORY dissolve","[0, u'?', 0, 100, 100, 0, 0, 100, 0, 0, 100]",1,10,"speaker",20,"compound","make the rocks dissolve","rare_deterministic","trufts",1,"rocks"
60,41445,"causals","plant grow indoors",0,"makes CATEGORY grow tall","[10, 20, 15, 10, 15, 20, 10, 10, u'?', 15, 20]",8,10,"speaker",20,"fertilizer","make the plants grow tall","common_weak","pangolins",0,"plants"
61,94133,"causals","rocks dissolve",0,"makes CATEGORY dissolve","[0, u'?', 20, 0, 10, 0, 0, 15, 0, 20, 0]",1,10,"speaker",60,"compound","make the rocks dissolve","rare_weak","kweps",1,"rocks"
62,117407,"causals","animal make sleepy",0,"makes CATEGORY sleepy","[10, 20, 15, 10, 15, 20, 10, u'?', 10, 15, 20]",7,10,"speaker",60,"herb","make the animals sleepy","common_weak","morseths",1,"animals"
63,128495,"causals","plant grow indoors",0,"makes CATEGORY grow tall","[0, 0, 100, u'?', 100, 0, 0, 100, 0, 0, 100]",3,10,"speaker",20,"fertilizer","make the plants grow tall","rare_deterministic","frams",1,"plants"
64,135839,"causals","plant grow indoors",0,"makes CATEGORY grow tall","[0, u'?', 0, 100, 100, 0, 0, 100, 0, 0, 100]",1,10,"speaker",60,"fertilizer","make the plants grow tall","rare_deterministic","kweps",0,"plants"
65,249880,"causals","animal make sleepy",0,"makes CATEGORY sleepy","[0, 20, 0, u'?', 10, 0, 0, 15, 0, 20, 0]",3,10,"speaker",20,"herb","make the animals sleepy","rare_weak","kazzes",0,"animals"
66,87989,"causals","plant grow indoors",0,"makes CATEGORY grow tall","[75, 0, 65, 0, 80, 90, 0, u'?', 0, 80, 90]",7,10,"speaker",20,"fertilizer","make the plants grow tall","rare_strong","stups",0,"plants"
67,42528,"causals","rocks dissolve",0,"makes CATEGORY dissolve","[75, 65, 65, 75, 80, u'?', 90, 80, 75, 80, 90]",5,10,"speaker",20,"compound","make the rocks dissolve","common_strong","lorches",1,"rocks"
68,52568,"causals","animal make sleepy",0,"makes CATEGORY sleepy","[85, 75, 15, 75, 10, 90, 90, u'?', 80, 10, 20]",7,10,"speaker",20,"herb","make the animals sleepy","weak_or_strong","thups",0,"animals"
69,112526,"causals","plant grow indoors",0,"makes CATEGORY grow tall","[0, 20, u'?', 0, 10, 0, 0, 15, 0, 20, 0]",2,10,"speaker",60,"fertilizer","make the plants grow tall","rare_weak","trufts",1,"plants"
70,146042,"causals","animal make sleepy",0,"makes CATEGORY sleepy","[0, 20, 0, u'?', 10, 0, 0, 15, 0, 20, 0]",3,10,"speaker",20,"herb","make the animals sleepy","rare_weak","thups",0,"animals"
71,48520,"causals","plant grow indoors",0,"makes CATEGORY grow tall","[0, u'?', 20, 0, 10, 0, 0, 15, 0, 20, 0]",1,10,"speaker",20,"fertilizer","make the plants grow tall","rare_weak","javs",1,"plants"
72,72202,"causals","animal make sleepy",0,"makes CATEGORY sleepy","[75, 65, 65, 75, 80, u'?', 90, 80, 75, 80, 90]",5,10,"speaker",20,"herb","make the animals sleepy","common_strong","feps",1,"animals"
73,18234,"causals","rocks dissolve",0,"makes CATEGORY dissolve","[75, 0, 65, 0, u'?', 80, 90, 0, 0, 80, 90]",4,10,"speaker",20,"compound","make the rocks dissolve","rare_strong","glippets",1,"rocks"
74,14266,"causals","plant grow indoors",0,"makes CATEGORY grow tall","[75, 65, u'?', 65, 75, 80, 90, 80, 75, 80, 90]",2,10,"speaker",60,"fertilizer","make the plants grow tall","common_strong","thups",1,"plants"
75,66684,"causals","animal make sleepy",0,"makes CATEGORY sleepy","[85, u'?', 75, 15, 75, 10, 90, 90, 80, 10, 20]",1,10,"speaker",60,"herb","make the animals sleepy","weak_or_strong","javs",1,"animals"
76,103642,"causals","rocks dissolve",0,"makes CATEGORY dissolve","[0, 20, 0, 10, u'?', 0, 0, 15, 0, 20, 0]",4,10,"speaker",20,"compound","make the rocks dissolve","rare_weak","cheebas",1,"rocks"
77,134417,"causals","rocks dissolve",0,"makes CATEGORY dissolve","[0, 20, 0, u'?', 10, 0, 0, 15, 0, 20, 0]",3,10,"speaker",60,"compound","make the rocks dissolve","rare_weak","wugs",1,"rocks"
78,33215,"causals","rocks dissolve",0,"makes CATEGORY dissolve","[10, 20, 15, 10, u'?', 15, 20, 10, 10, 15, 20]",4,10,"speaker",20,"compound","make the rocks dissolve","common_weak","ackles",0,"rocks"
79,44124,"causals","animal make sleepy",0,"makes CATEGORY sleepy","[85, 75, 15, 75, u'?', 10, 90, 90, 80, 10, 20]",4,10,"speaker",60,"herb","make the animals sleepy","weak_or_strong","trufts",1,"animals"
80,51585,"causals","rocks dissolve",0,"makes CATEGORY dissolve","[75, u'?', 0, 65, 0, 80, 90, 0, 0, 80, 90]",1,10,"speaker",20,"compound","make the rocks dissolve","rare_strong","krivels",1,"rocks"
81,111665,"causals","rocks dissolve",0,"makes CATEGORY dissolve","[85, 75, 15, 75, 10, 90, 90, 80, u'?', 10, 20]",8,10,"speaker",60,"compound","make the rocks dissolve","weak_or_strong","ackles",1,"rocks"
82,8790,"causals","plant grow indoors",0,"makes CATEGORY grow tall","[75, 0, 65, 0, 80, 90, 0, 0, u'?', 80, 90]",8,10,"speaker",60,"fertilizer","make the plants grow tall","rare_strong","trufts",0,"plants"
83,38277,"causals","animal make sleepy",0,"makes CATEGORY sleepy","[10, 20, 15, 10, 15, 20, u'?', 10, 10, 15, 20]",6,10,"speaker",60,"herb","make the animals sleepy","common_weak","krivels",1,"animals"
84,178188,"causals","plant grow indoors",0,"makes CATEGORY grow tall","[0, 0, 100, 100, 0, 0, u'?', 100, 0, 0, 100]",6,10,"speaker",60,"fertilizer","make the plants grow tall","rare_deterministic","pangolins",1,"plants"
85,82881,"causals","rocks dissolve",0,"makes CATEGORY dissolve","[75, 0, u'?', 65, 0, 80, 90, 0, 0, 80, 90]",2,10,"speaker",60,"compound","make the rocks dissolve","rare_strong","kazzes",1,"rocks"
86,89392,"causals","plant grow indoors",0,"makes CATEGORY grow tall","[10, 20, 15, 10, 15, 20, 10, u'?', 10, 15, 20]",7,10,"speaker",60,"fertilizer","make the plants grow tall","common_weak","stups",1,"plants"
87,50358,"causals","animal make sleepy",0,"makes CATEGORY sleepy","[85, 75, u'?', 15, 75, 10, 90, 90, 80, 10, 20]",2,10,"speaker",20,"herb","make the animals sleepy","weak_or_strong","taifels",0,"animals"
88,44047,"causals","plant grow indoors",0,"makes CATEGORY grow tall","[0, 0, 100, 100, 0, 0, 100, u'?', 0, 0, 100]",7,10,"speaker",20,"fertilizer","make the plants grow tall","rare_deterministic","elleps",0,"plants"
89,215481,"causals","rocks dissolve",0,"makes CATEGORY dissolve","[0, 0, 100, 100, 0, u'?', 0, 100, 0, 0, 100]",5,10,"speaker",60,"compound","make the rocks dissolve","rare_deterministic","mooks",1,"rocks"
90,116320,"causals","animal make sleepy",0,"makes CATEGORY sleepy","[85, 75, 15, 75, 10, 90, 90, u'?', 80, 10, 20]",7,10,"speaker",20,"herb","make the animals sleepy","weak_or_strong","cheebas",0,"animals"
91,169724,"causals","rocks dissolve",0,"makes CATEGORY dissolve","[75, 0, 65, 0, 80, u'?', 90, 0, 0, 80, 90]",5,10,"speaker",20,"compound","make the rocks dissolve","rare_strong","luzaks",1,"rocks"
92,80004,"causals","rocks dissolve",0,"makes CATEGORY dissolve","[85, 75, 15, 75, 10, u'?', 90, 90, 80, 10, 20]",5,10,"speaker",20,"compound","make the rocks dissolve","weak_or_strong","glippets",0,"rocks"
93,45070,"causals","plant grow indoors",0,"makes CATEGORY grow tall","[75, 0, 65, 0, 80, u'?', 90, 0, 0, 80, 90]",5,10,"speaker",20,"fertilizer","make the plants grow tall","rare_strong","stups",1,"plants"
94,23774,"causals","rocks dissolve",0,"makes CATEGORY dissolve","[75, 0, 65, 0, 80, 90, 0, u'?', 0, 80, 90]",7,10,"speaker",60,"compound","make the rocks dissolve","rare_strong","feps",1,"rocks"
95,34071,"causals","animal make sleepy",0,"makes CATEGORY sleepy","[75, 0, 65, 0, 80, 90, 0, 0, u'?', 80, 90]",8,10,"speaker",20,"herb","make the animals sleepy","rare_strong","kweps",0,"animals"
96,57469,"causals","plant grow indoors",0,"makes CATEGORY grow tall","[0, u'?', 20, 0, 10, 0, 0, 15, 0, 20, 0]",1,10,"speaker",60,"fertilizer","make the plants grow tall","rare_weak","krivels",1,"plants"
97,46038,"causals","animal make sleepy",0,"makes CATEGORY sleepy","[10, 20, 15, 10, u'?', 15, 20, 10, 10, 15, 20]",4,10,"speaker",60,"herb","make the animals sleepy","common_weak","dorbs",1,"animals"
98,36374,"causals","animal make sleepy",0,"makes CATEGORY sleepy","[10, 20, 15, 10, 15, 20, 10, 10, u'?', 15, 20]",8,10,"speaker",60,"herb","make the animals sleepy","common_weak","frams",0,"animals"
99,56534,"causals","rocks dissolve",0,"makes CATEGORY dissolve","[10, 20, u'?', 15, 10, 15, 20, 10, 10, 15, 20]",2,10,"speaker",60,"compound","make the rocks dissolve","common_weak","javs",1,"rocks"
100,109528,"causals","plant grow indoors",0,"makes CATEGORY grow tall","[75, 65, 65, 75, 80, 90, u'?', 80, 75, 80, 90]",6,10,"speaker",60,"fertilizer","make the plants grow tall","common_strong","pangolins",0,"plants"
101,54038,"causals","rocks dissolve",0,"makes CATEGORY dissolve","[75, 0, 65, 0, 80, 90, 0, 0, u'?', 80, 90]",8,10,"speaker",60,"compound","make the rocks dissolve","rare_strong","taifels",1,"rocks"
102,105152,"causals","plant grow indoors",0,"makes CATEGORY grow tall","[0, 0, 100, 100, 0, u'?', 0, 100, 0, 0, 100]",5,10,"speaker",20,"fertilizer","make the plants grow tall","rare_deterministic","moxes",1,"plants"
103,11193,"causals","plant grow indoors",0,"makes CATEGORY grow tall","[10, 20, 15, 10, 15, 20, 10, u'?', 10, 15, 20]",7,10,"speaker",20,"fertilizer","make the plants grow tall","common_weak","zorbs",1,"plants"
104,111400,"causals","rocks dissolve",0,"makes CATEGORY dissolve","[85, 75, 15, u'?', 75, 10, 90, 90, 80, 10, 20]",3,10,"speaker",20,"compound","make the rocks dissolve","weak_or_strong","glippets",0,"rocks"
105,92365,"causals","plant grow indoors",0,"makes CATEGORY grow tall","[0, 0, 100, 100, 0, 0, u'?', 100, 0, 0, 100]",6,10,"speaker",60,"fertilizer","make the plants grow tall","rare_deterministic","reesles",1,"plants"
106,34117,"causals","rocks dissolve",0,"makes CATEGORY dissolve","[75, 0, 65, u'?', 0, 80, 90, 0, 0, 80, 90]",3,10,"speaker",60,"compound","make the rocks dissolve","rare_strong","daiths",1,"rocks"
107,68267,"causals","plant grow indoors",0,"makes CATEGORY grow tall","[85, 75, 15, 75, 10, 90, u'?', 90, 80, 10, 20]",6,10,"speaker",60,"fertilizer","make the plants grow tall","weak_or_strong","zoovs",1,"plants"
108,57899,"causals","plant grow indoors",0,"makes CATEGORY grow tall","[10, 20, 15, 10, 15, 20, 10, u'?', 10, 15, 20]",7,10,"speaker",20,"fertilizer","make the plants grow tall","common_weak","zorbs",1,"plants"
109,83209,"causals","animal make sleepy",0,"makes CATEGORY sleepy","[10, 20, 15, 10, 15, 20, 10, 10, u'?', 15, 20]",8,10,"speaker",20,"herb","make the animals sleepy","common_weak","ollers",1,"animals"
110,160351,"causals","animal make sleepy",0,"makes CATEGORY sleepy","[0, 0, 100, 100, 0, 0, 100, 0, u'?', 0, 100]",8,10,"speaker",60,"herb","make the animals sleepy","rare_deterministic","javs",1,"animals"
111,55981,"causals","plant grow indoors",0,"makes CATEGORY grow tall","[75, 65, 65, 75, 80, u'?', 90, 80, 75, 80, 90]",5,10,"speaker",60,"fertilizer","make the plants grow tall","common_strong","krivels",1,"plants"
112,163572,"causals","rocks dissolve",0,"makes CATEGORY dissolve","[75, 0, 65, u'?', 0, 80, 90, 0, 0, 80, 90]",3,10,"speaker",60,"compound","make the rocks dissolve","rare_strong","thups",1,"rocks"
113,109981,"causals","animal make sleepy",0,"makes CATEGORY sleepy","[0, 20, 0, 10, 0, 0, 15, u'?', 0, 20, 0]",7,10,"speaker",60,"herb","make the animals sleepy","rare_weak","thups",1,"animals"
114,85684,"causals","plant grow indoors",0,"makes CATEGORY grow tall","[0, u'?', 20, 0, 10, 0, 0, 15, 0, 20, 0]",1,10,"speaker",60,"fertilizer","make the plants grow tall","rare_weak","lorches",1,"plants"
115,144255,"causals","rocks dissolve",0,"makes CATEGORY dissolve","[0, 0, 100, u'?', 100, 0, 0, 100, 0, 0, 100]",3,10,"speaker",20,"compound","make the rocks dissolve","rare_deterministic","feps",1,"rocks"
116,210405,"causals","rocks dissolve",0,"makes CATEGORY dissolve","[75, 65, 65, 75, 80, 90, u'?', 80, 75, 80, 90]",6,10,"speaker",60,"compound","make the rocks dissolve","common_strong","moxes",1,"rocks"
117,65209,"causals","plant grow indoors",0,"makes CATEGORY grow tall","[10, 20, 15, 10, 15, 20, 10, 10, u'?', 15, 20]",8,10,"speaker",60,"fertilizer","make the plants grow tall","common_weak","feps",1,"plants"
118,52592,"causals","rocks dissolve",0,"makes CATEGORY dissolve","[75, u'?', 0, 65, 0, 80, 90, 0, 0, 80, 90]",1,10,"speaker",60,"compound","make the rocks dissolve","rare_strong","krivels",1,"rocks"
119,117985,"causals","plant grow indoors",0,"makes CATEGORY grow tall","[75, 0, 65, 0, 80, u'?', 90, 0, 0, 80, 90]",5,10,"speaker",20,"fertilizer","make the plants grow tall","rare_strong","glippets",0,"plants"
120,154809,"causals","animal make sleepy",0,"makes CATEGORY sleepy","[75, 0, 65, u'?', 0, 80, 90, 0, 0, 80, 90]",3,10,"speaker",60,"herb","make the animals sleepy","rare_strong","glippets",1,"animals"
121,78418,"causals","rocks dissolve",0,"makes CATEGORY dissolve","[75, 65, 65, u'?', 75, 80, 90, 80, 75, 80, 90]",3,10,"speaker",20,"compound","make the rocks dissolve","common_strong","plovs",1,"rocks"
122,87285,"causals","rocks dissolve",0,"makes CATEGORY dissolve","[0, 0, 100, 100, 0, 0, 100, 0, u'?', 0, 100]",8,10,"speaker",20,"compound","make the rocks dissolve","rare_deterministic","pangolins",1,"rocks"
123,38028,"causals","animal make sleepy",0,"makes CATEGORY sleepy","[0, 20, 0, 10, 0, u'?', 0, 15, 0, 20, 0]",5,10,"speaker",60,"herb","make the animals sleepy","rare_weak","wugs",1,"animals"
124,51945,"causals","animal make sleepy",0,"makes CATEGORY sleepy","[85, 75, u'?', 15, 75, 10, 90, 90, 80, 10, 20]",2,10,"speaker",20,"herb","make the animals sleepy","weak_or_strong","sapers",0,"animals"
125,157772,"causals","animal make sleepy",0,"makes CATEGORY sleepy","[85, u'?', 75, 15, 75, 10, 90, 90, 80, 10, 20]",1,10,"speaker",20,"herb","make the animals sleepy","weak_or_strong","ackles",1,"animals"
126,77359,"causals","plant grow indoors",0,"makes CATEGORY grow tall","[0, 0, 100, 100, 0, 0, u'?', 100, 0, 0, 100]",6,10,"speaker",60,"fertilizer","make the plants grow tall","rare_deterministic","crullets",1,"plants"
127,78084,"causals","rocks dissolve",0,"makes CATEGORY dissolve","[0, u'?', 0, 100, 100, 0, 0, 100, 0, 0, 100]",1,10,"speaker",60,"compound","make the rocks dissolve","rare_deterministic","dorbs",1,"rocks"
128,96846,"causals","plant grow indoors",0,"makes CATEGORY grow tall","[75, 0, u'?', 65, 0, 80, 90, 0, 0, 80, 90]",2,10,"speaker",20,"fertilizer","make the plants grow tall","rare_strong","luzaks",1,"plants"
129,143863,"causals","animal make sleepy",0,"makes CATEGORY sleepy","[10, 20, 15, 10, 15, 20, u'?', 10, 10, 15, 20]",6,10,"speaker",20,"herb","make the animals sleepy","common_weak","frams",1,"animals"
130,100431,"causals","plant grow indoors",0,"makes CATEGORY grow tall","[0, 0, 100, u'?', 100, 0, 0, 100, 0, 0, 100]",3,10,"speaker",60,"fertilizer","make the plants grow tall","rare_deterministic","glippets",1,"plants"
131,40729,"causals","rocks dissolve",0,"makes CATEGORY dissolve","[0, u'?', 0, 100, 100, 0, 0, 100, 0, 0, 100]",1,10,"speaker",20,"compound","make the rocks dissolve","rare_deterministic","kweps",1,"rocks"
132,77472,"causals","plant grow indoors",0,"makes CATEGORY grow tall","[75, 65, 65, u'?', 75, 80, 90, 80, 75, 80, 90]",3,10,"speaker",20,"fertilizer","make the plants grow tall","common_strong","dorbs",0,"plants"
133,140410,"causals","rocks dissolve",0,"makes CATEGORY dissolve","[0, 20, 0, 10, 0, u'?', 0, 15, 0, 20, 0]",5,10,"speaker",20,"compound","make the rocks dissolve","rare_weak","glippets",1,"rocks"
134,60242,"causals","plant grow indoors",0,"makes CATEGORY grow tall","[85, 75, 15, 75, 10, u'?', 90, 90, 80, 10, 20]",5,10,"speaker",20,"fertilizer","make the plants grow tall","weak_or_strong","glippets",0,"plants"
135,140538,"causals","rocks dissolve",0,"makes CATEGORY dissolve","[75, 0, u'?', 65, 0, 80, 90, 0, 0, 80, 90]",2,10,"speaker",20,"compound","make the rocks dissolve","rare_strong","stups",0,"rocks"
136,111787,"causals","animal make sleepy",0,"makes CATEGORY sleepy","[85, 75, 15, 75, 10, 90, 90, u'?', 80, 10, 20]",7,10,"speaker",60,"herb","make the animals sleepy","weak_or_strong","pangolins",1,"animals"
137,72189,"causals","animal make sleepy",0,"makes CATEGORY sleepy","[85, 75, 15, 75, 10, 90, u'?', 90, 80, 10, 20]",6,10,"speaker",60,"herb","make the animals sleepy","weak_or_strong","glippets",1,"animals"
138,48100,"causals","rocks dissolve",0,"makes CATEGORY dissolve","[10, 20, 15, 10, 15, u'?', 20, 10, 10, 15, 20]",5,10,"speaker",60,"compound","make the rocks dissolve","common_weak","taifels",1,"rocks"
139,98493,"causals","animal make sleepy",0,"makes CATEGORY sleepy","[75, 0, 65, 0, 80, 90, 0, 0, u'?', 80, 90]",8,10,"speaker",60,"herb","make the animals sleepy","rare_strong","kweps",1,"animals"
140,91935,"causals","animal make sleepy",0,"makes CATEGORY sleepy","[10, 20, u'?', 15, 10, 15, 20, 10, 10, 15, 20]",2,10,"speaker",60,"herb","make the animals sleepy","common_weak","frams",1,"animals"
141,41540,"causals","rocks dissolve",0,"makes CATEGORY dissolve","[85, 75, 15, 75, 10, 90, 90, u'?', 80, 10, 20]",7,10,"speaker",60,"compound","make the rocks dissolve","weak_or_strong","blins",0,"rocks"
142,85258,"causals","rocks dissolve",0,"makes CATEGORY dissolve","[75, 0, 65, u'?', 0, 80, 90, 0, 0, 80, 90]",3,10,"speaker",20,"compound","make the rocks dissolve","rare_strong","trufts",0,"rocks"
143,55525,"causals","plant grow indoors",0,"makes CATEGORY grow tall","[75, 0, 65, 0, 80, 90, u'?', 0, 0, 80, 90]",6,10,"speaker",60,"fertilizer","make the plants grow tall","rare_strong","thups",0,"plants"
144,100386,"causals","plant grow indoors",0,"makes CATEGORY grow tall","[75, 0, 65, 0, u'?', 80, 90, 0, 0, 80, 90]",4,10,"speaker",20,"fertilizer","make the plants grow tall","rare_strong","stups",0,"plants"
145,54487,"causals","rocks dissolve",0,"makes CATEGORY dissolve","[85, 75, 15, u'?', 75, 10, 90, 90, 80, 10, 20]",3,10,"speaker",20,"compound","make the rocks dissolve","weak_or_strong","krivels",1,"rocks"
146,120489,"causals","plant grow indoors",0,"makes CATEGORY grow tall","[0, 0, u'?', 100, 100, 0, 0, 100, 0, 0, 100]",2,10,"speaker",20,"fertilizer","make the plants grow tall","rare_deterministic","frams",0,"plants"
147,10654,"causals","plant grow indoors",0,"makes CATEGORY grow tall","[0, 20, u'?', 0, 10, 0, 0, 15, 0, 20, 0]",2,10,"speaker",60,"fertilizer","make the plants grow tall","rare_weak","frams",1,"plants"
148,75405,"causals","plant grow indoors",0,"makes CATEGORY grow tall","[85, 75, 15, 75, 10, u'?', 90, 90, 80, 10, 20]",5,10,"speaker",60,"fertilizer","make the plants grow tall","weak_or_strong","blins",1,"plants"
149,131890,"causals","animal make sleepy",0,"makes CATEGORY sleepy","[10, 20, 15, 10, u'?', 15, 20, 10, 10, 15, 20]",4,10,"speaker",20,"herb","make the animals sleepy","common_weak","ackles",1,"animals"
150,39560,"causals","animal make sleepy",0,"makes CATEGORY sleepy","[85, 75, u'?', 15, 75, 10, 90, 90, 80, 10, 20]",2,10,"speaker",20,"herb","make the animals sleepy","weak_or_strong","taifels",0,"animals"
151,237426,"causals","rocks dissolve",0,"makes CATEGORY dissolve","[10, 20, 15, 10, u'?', 15, 20, 10, 10, 15, 20]",4,10,"speaker",20,"compound","make the rocks dissolve","common_weak","feps",1,"rocks"
152,97665,"causals","plant grow indoors",0,"makes CATEGORY grow tall","[0, 20, 0, 10, 0, u'?', 0, 15, 0, 20, 0]",5,10,"speaker",20,"fertilizer","make the plants grow tall","rare_weak","plovs",0,"plants"
153,112346,"causals","animal make sleepy",0,"makes CATEGORY sleepy","[10, 20, 15, 10, 15, 20, 10, u'?', 10, 15, 20]",7,10,"speaker",20,"herb","make the animals sleepy","common_weak","reesles",0,"animals"
154,71448,"causals","animal make sleepy",0,"makes CATEGORY sleepy","[10, u'?', 20, 15, 10, 15, 20, 10, 10, 15, 20]",1,10,"speaker",20,"herb","make the animals sleepy","common_weak","kazzes",0,"animals"
155,30452,"causals","animal make sleepy",0,"makes CATEGORY sleepy","[75, 65, u'?', 65, 75, 80, 90, 80, 75, 80, 90]",2,10,"speaker",60,"herb","make the animals sleepy","common_strong","blins",0,"animals"
156,67373,"causals","animal make sleepy",0,"makes CATEGORY sleepy","[75, 65, u'?', 65, 75, 80, 90, 80, 75, 80, 90]",2,10,"speaker",20,"herb","make the animals sleepy","common_strong","morseths",1,"animals"
157,59922,"causals","plant grow indoors",0,"makes CATEGORY grow tall","[10, 20, 15, 10, 15, u'?', 20, 10, 10, 15, 20]",5,10,"speaker",60,"fertilizer","make the plants grow tall","common_weak","daiths",1,"plants"
158,31107,"causals","animal make sleepy",0,"makes CATEGORY sleepy","[10, 20, 15, 10, 15, 20, u'?', 10, 10, 15, 20]",6,10,"speaker",20,"herb","make the animals sleepy","common_weak","mooks",1,"animals"
159,51815,"causals","plant grow indoors",0,"makes CATEGORY grow tall","[10, 20, 15, 10, u'?', 15, 20, 10, 10, 15, 20]",4,10,"speaker",20,"fertilizer","make the plants grow tall","common_weak","cheebas",0,"plants"
160,106812,"causals","plant grow indoors",0,"makes CATEGORY grow tall","[0, 20, 0, u'?', 10, 0, 0, 15, 0, 20, 0]",3,10,"speaker",60,"fertilizer","make the plants grow tall","rare_weak","crullets",1,"plants"
161,11594,"causals","plant grow indoors",0,"makes CATEGORY grow tall","[0, u'?', 20, 0, 10, 0, 0, 15, 0, 20, 0]",1,10,"speaker",60,"fertilizer","make the plants grow tall","rare_weak","sapers",1,"plants"
162,62887,"causals","rocks dissolve",0,"makes CATEGORY dissolve","[10, 20, 15, 10, 15, 20, 10, u'?', 10, 15, 20]",7,10,"speaker",60,"compound","make the rocks dissolve","common_weak","kweps",1,"rocks"
163,101744,"causals","plant grow indoors",0,"makes CATEGORY grow tall","[75, 0, 65, 0, u'?', 80, 90, 0, 0, 80, 90]",4,10,"speaker",60,"fertilizer","make the plants grow tall","rare_strong","kweps",0,"plants"
164,85935,"causals","animal make sleepy",0,"makes CATEGORY sleepy","[85, 75, 15, 75, 10, 90, 90, u'?', 80, 10, 20]",7,10,"speaker",60,"herb","make the animals sleepy","weak_or_strong","lorches",1,"animals"
165,58973,"causals","plant grow indoors",0,"makes CATEGORY grow tall","[75, 0, 65, 0, 80, 90, 0, 0, u'?', 80, 90]",8,10,"speaker",20,"fertilizer","make the plants grow tall","rare_strong","glippets",0,"plants"
166,193545,"causals","plant grow indoors",0,"makes CATEGORY grow tall","[0, u'?', 20, 0, 10, 0, 0, 15, 0, 20, 0]",1,10,"speaker",20,"fertilizer","make the plants grow tall","rare_weak","crullets",0,"plants"
167,96452,"causals","rocks dissolve",0,"makes CATEGORY dissolve","[75, 0, 65, 0, 80, 90, 0, u'?', 0, 80, 90]",7,10,"speaker",20,"compound","make the rocks dissolve","rare_strong","trufts",0,"rocks"
168,75261,"causals","animal make sleepy",0,"makes CATEGORY sleepy","[75, u'?', 0, 65, 0, 80, 90, 0, 0, 80, 90]",1,10,"speaker",60,"herb","make the animals sleepy","rare_strong","daiths",0,"animals"
169,78558,"causals","animal make sleepy",0,"makes CATEGORY sleepy","[10, 20, 15, 10, u'?', 15, 20, 10, 10, 15, 20]",4,10,"speaker",60,"herb","make the animals sleepy","common_weak","kweps",0,"animals"
170,39764,"causals","plant grow indoors",0,"makes CATEGORY grow tall","[0, 20, 0, 10, 0, 0, u'?', 15, 0, 20, 0]",6,10,"speaker",60,"fertilizer","make the plants grow tall","rare_weak","feps",1,"plants"
171,159000,"causals","rocks dissolve",0,"makes CATEGORY dissolve","[75, 65, 65, 75, 80, 90, u'?', 80, 75, 80, 90]",6,10,"speaker",60,"compound","make the rocks dissolve","common_strong","taifels",0,"rocks"
172,32465,"causals","rocks dissolve",0,"makes CATEGORY dissolve","[0, 0, 100, 100, u'?', 0, 0, 100, 0, 0, 100]",4,10,"speaker",60,"compound","make the rocks dissolve","rare_deterministic","ackles",1,"rocks"
173,90301,"causals","rocks dissolve",0,"makes CATEGORY dissolve","[0, 0, 100, 100, 0, 0, 100, 0, u'?', 0, 100]",8,10,"speaker",60,"compound","make the rocks dissolve","rare_deterministic","pangolins",0,"rocks"
174,158156,"causals","rocks dissolve",0,"makes CATEGORY dissolve","[75, 0, 65, 0, 80, u'?', 90, 0, 0, 80, 90]",5,10,"speaker",20,"compound","make the rocks dissolve","rare_strong","luzaks",1,"rocks"
175,128714,"causals","plant grow indoors",0,"makes CATEGORY grow tall","[0, 0, 100, 100, u'?', 0, 0, 100, 0, 0, 100]",4,10,"speaker",60,"fertilizer","make the plants grow tall","rare_deterministic","stups",1,"plants"
176,54060,"causals","plant grow indoors",0,"makes CATEGORY grow tall","[75, 0, 65, 0, u'?', 80, 90, 0, 0, 80, 90]",4,10,"speaker",60,"fertilizer","make the plants grow tall","rare_strong","moxes",1,"plants"
177,52017,"causals","animal make sleepy",0,"makes CATEGORY sleepy","[0, 20, 0, u'?', 10, 0, 0, 15, 0, 20, 0]",3,10,"speaker",60,"herb","make the animals sleepy","rare_weak","kweps",0,"animals"
178,195327,"causals","rocks dissolve",0,"makes CATEGORY dissolve","[75, 0, 65, 0, 80, u'?', 90, 0, 0, 80, 90]",5,10,"speaker",60,"compound","make the rocks dissolve","rare_strong","dorbs",1,"rocks"
179,65346,"causals","animal make sleepy",0,"makes CATEGORY sleepy","[10, u'?', 20, 15, 10, 15, 20, 10, 10, 15, 20]",1,10,"speaker",20,"herb","make the animals sleepy","common_weak","wugs",0,"animals"
180,216634,"causals","plant grow indoors",0,"makes CATEGORY grow tall","[0, 20, 0, 10, 0, u'?', 0, 15, 0, 20, 0]",5,10,"speaker",20,"fertilizer","make the plants grow tall","rare_weak","moxes",1,"plants"
181,101079,"causals","plant grow indoors",0,"makes CATEGORY grow tall","[75, 0, 65, 0, u'?', 80, 90, 0, 0, 80, 90]",4,10,"speaker",20,"fertilizer","make the plants grow tall","rare_strong","kazzes",1,"plants"
182,137172,"causals","rocks dissolve",0,"makes CATEGORY dissolve","[85, 75, 15, 75, 10, 90, u'?', 90, 80, 10, 20]",6,10,"speaker",20,"compound","make the rocks dissolve","weak_or_strong","blins",1,"rocks"
183,65868,"causals","animal make sleepy",0,"makes CATEGORY sleepy","[75, 65, 65, 75, 80, u'?', 90, 80, 75, 80, 90]",5,10,"speaker",20,"herb","make the animals sleepy","common_strong","elleps",0,"animals"
184,24397,"causals","animal make sleepy",0,"makes CATEGORY sleepy","[0, 20, 0, 10, 0, 0, 15, 0, u'?', 20, 0]",8,10,"speaker",20,"herb","make the animals sleepy","rare_weak","mooks",1,"animals"
185,101784,"causals","rocks dissolve",0,"makes CATEGORY dissolve","[0, u'?', 0, 100, 100, 0, 0, 100, 0, 0, 100]",1,10,"speaker",20,"compound","make the rocks dissolve","rare_deterministic","blins",1,"rocks"
186,38475,"causals","plant grow indoors",0,"makes CATEGORY grow tall","[0, 20, u'?', 0, 10, 0, 0, 15, 0, 20, 0]",2,10,"speaker",60,"fertilizer","make the plants grow tall","rare_weak","thups",0,"plants"
187,134005,"causals","plant grow indoors",0,"makes CATEGORY grow tall","[10, 20, 15, 10, 15, 20, 10, u'?', 10, 15, 20]",7,10,"speaker",60,"fertilizer","make the plants grow tall","common_weak","kweps",1,"plants"
188,56793,"causals","rocks dissolve",0,"makes CATEGORY dissolve","[75, 65, u'?', 65, 75, 80, 90, 80, 75, 80, 90]",2,10,"speaker",60,"compound","make the rocks dissolve","common_strong","daiths",1,"rocks"
189,64211,"causals","rocks dissolve",0,"makes CATEGORY dissolve","[10, 20, 15, 10, u'?', 15, 20, 10, 10, 15, 20]",4,10,"speaker",20,"compound","make the rocks dissolve","common_weak","taifels",0,"rocks"
190,68201,"causals","animal make sleepy",0,"makes CATEGORY sleepy","[0, 0, u'?', 100, 100, 0, 0, 100, 0, 0, 100]",2,10,"speaker",20,"herb","make the animals sleepy","rare_deterministic","daiths",1,"animals"
191,96141,"causals","animal make sleepy",0,"makes CATEGORY sleepy","[0, 0, 100, 100, 0, 0, 100, 0, u'?', 0, 100]",8,10,"speaker",20,"herb","make the animals sleepy","rare_deterministic","crullets",0,"animals"
192,169399,"causals","plant grow indoors",0,"makes CATEGORY grow tall","[10, 20, 15, 10, 15, u'?', 20, 10, 10, 15, 20]",5,10,"speaker",20,"fertilizer","make the plants grow tall","common_weak","plovs",0,"plants"
193,227712,"causals","rocks dissolve",0,"makes CATEGORY dissolve","[0, 20, 0, 10, u'?', 0, 0, 15, 0, 20, 0]",4,10,"speaker",60,"compound","make the rocks dissolve","rare_weak","javs",1,"rocks"
194,58746,"causals","rocks dissolve",0,"makes CATEGORY dissolve","[75, u'?', 0, 65, 0, 80, 90, 0, 0, 80, 90]",1,10,"speaker",20,"compound","make the rocks dissolve","rare_strong","wugs",0,"rocks"
195,183666,"causals","rocks dissolve",0,"makes CATEGORY dissolve","[85, 75, 15, 75, 10, 90, 90, 80, u'?', 10, 20]",8,10,"speaker",20,"compound","make the rocks dissolve","weak_or_strong","crullets",0,"rocks"
196,135834,"causals","rocks dissolve",0,"makes CATEGORY dissolve","[0, 20, 0, 10, 0, u'?', 0, 15, 0, 20, 0]",5,10,"speaker",20,"compound","make the rocks dissolve","rare_weak","moxes",1,"rocks"
197,56107,"causals","plant grow indoors",0,"makes CATEGORY grow tall","[75, 0, 65, 0, u'?', 80, 90, 0, 0, 80, 90]",4,10,"speaker",60,"fertilizer","make the plants grow tall","rare_strong","glippets",0,"plants"
198,111510,"causals","plant grow indoors",0,"makes CATEGORY grow tall","[0, 0, 100, u'?', 100, 0, 0, 100, 0, 0, 100]",3,10,"speaker",20,"fertilizer","make the plants grow tall","rare_deterministic","feps",0,"plants"
199,61272,"causals","rocks dissolve",0,"makes CATEGORY dissolve","[0, 20, 0, 10, 0, u'?', 0, 15, 0, 20, 0]",5,10,"speaker",60,"compound","make the rocks dissolve","rare_weak","kazzes",1,"rocks"
200,65694,"causals","animal make sleepy",0,"makes CATEGORY sleepy","[0, 20, 0, 10, 0, u'?', 0, 15, 0, 20, 0]",5,10,"speaker",60,"herb","make the animals sleepy","rare_weak","kweps",1,"animals"
201,96480,"causals","rocks dissolve",0,"makes CATEGORY dissolve","[85, 75, u'?', 15, 75, 10, 90, 90, 80, 10, 20]",2,10,"speaker",60,"compound","make the rocks dissolve","weak_or_strong","trufts",1,"rocks"
202,261750,"causals","rocks dissolve",0,"makes CATEGORY dissolve","[85, 75, 15, 75, 10, 90, 90, 80, u'?', 10, 20]",8,10,"speaker",20,"compound","make the rocks dissolve","weak_or_strong","thups",1,"rocks"
203,17289,"causals","animal make sleepy",0,"makes CATEGORY sleepy","[0, u'?', 20, 0, 10, 0, 0, 15, 0, 20, 0]",1,10,"speaker",20,"herb","make the animals sleepy","rare_weak","stups",0,"animals"
204,53844,"causals","rocks dissolve",0,"makes CATEGORY dissolve","[0, 0, 100, 100, 0, 0, u'?', 100, 0, 0, 100]",6,10,"speaker",20,"compound","make the rocks dissolve","rare_deterministic","moxes",1,"rocks"
205,203745,"causals","rocks dissolve",0,"makes CATEGORY dissolve","[0, 0, 100, 100, 0, 0, 100, 0, u'?', 0, 100]",8,10,"speaker",20,"compound","make the rocks dissolve","rare_deterministic","thups",1,"rocks"
206,74089,"causals","animal make sleepy",0,"makes CATEGORY sleepy","[0, 0, 100, 100, 0, 0, 100, u'?', 0, 0, 100]",7,10,"speaker",60,"herb","make the animals sleepy","rare_deterministic","mooks",1,"animals"
207,16032,"causals","animal make sleepy",0,"makes CATEGORY sleepy","[0, u'?', 0, 100, 100, 0, 0, 100, 0, 0, 100]",1,10,"speaker",20,"herb","make the animals sleepy","rare_deterministic","luzaks",1,"animals"
208,68554,"causals","rocks dissolve",0,"makes CATEGORY dissolve","[10, 20, u'?', 15, 10, 15, 20, 10, 10, 15, 20]",2,10,"speaker",20,"compound","make the rocks dissolve","common_weak","mooks",0,"rocks"
209,136596,"causals","rocks dissolve",0,"makes CATEGORY dissolve","[75, 65, 65, 75, u'?', 80, 90, 80, 75, 80, 90]",4,10,"speaker",20,"compound","make the rocks dissolve","common_strong","zoovs",1,"rocks"
210,92189,"causals","plant grow indoors",0,"makes CATEGORY grow tall","[85, u'?', 75, 15, 75, 10, 90, 90, 80, 10, 20]",1,10,"speaker",20,"fertilizer","make the plants grow tall","weak_or_strong","grinks",0,"plants"
211,137636,"causals","plant grow indoors",0,"makes CATEGORY grow tall","[75, 65, 65, 75, 80, u'?', 90, 80, 75, 80, 90]",5,10,"speaker",20,"fertilizer","make the plants grow tall","common_strong","javs",0,"plants"
212,60940,"causals","plant grow indoors",0,"makes CATEGORY grow tall","[75, 65, 65, u'?', 75, 80, 90, 80, 75, 80, 90]",3,10,"speaker",20,"fertilizer","make the plants grow tall","common_strong","dorbs",1,"plants"
213,159825,"causals","plant grow indoors",0,"makes CATEGORY grow tall","[75, 65, 65, 75, 80, u'?', 90, 80, 75, 80, 90]",5,10,"speaker",60,"fertilizer","make the plants grow tall","common_strong","kazzes",0,"plants"
214,153245,"causals","plant grow indoors",0,"makes CATEGORY grow tall","[75, 65, 65, u'?', 75, 80, 90, 80, 75, 80, 90]",3,10,"speaker",20,"fertilizer","make the plants grow tall","common_strong","trufts",0,"plants"
215,129427,"causals","rocks dissolve",0,"makes CATEGORY dissolve","[10, u'?', 20, 15, 10, 15, 20, 10, 10, 15, 20]",1,10,"speaker",20,"compound","make the rocks dissolve","common_weak","dorbs",1,"rocks"
216,81315,"causals","animal make sleepy",0,"makes CATEGORY sleepy","[75, 65, 65, u'?', 75, 80, 90, 80, 75, 80, 90]",3,10,"speaker",20,"herb","make the animals sleepy","common_strong","dorbs",1,"animals"
217,42049,"causals","plant grow indoors",0,"makes CATEGORY grow tall","[85, 75, 15, 75, u'?', 10, 90, 90, 80, 10, 20]",4,10,"speaker",20,"fertilizer","make the plants grow tall","weak_or_strong","taifels",0,"plants"
218,186624,"causals","plant grow indoors",0,"makes CATEGORY grow tall","[10, 20, 15, u'?', 10, 15, 20, 10, 10, 15, 20]",3,10,"speaker",20,"fertilizer","make the plants grow tall","common_weak","taifels",0,"plants"
219,91032,"causals","rocks dissolve",0,"makes CATEGORY dissolve","[0, 0, 100, 100, 0, 0, 100, 0, u'?', 0, 100]",8,10,"speaker",60,"compound","make the rocks dissolve","rare_deterministic","feps",1,"rocks"
220,96466,"causals","plant grow indoors",0,"makes CATEGORY grow tall","[10, 20, u'?', 15, 10, 15, 20, 10, 10, 15, 20]",2,10,"speaker",20,"fertilizer","make the plants grow tall","common_weak","thups",1,"plants"
221,77196,"causals","rocks dissolve",0,"makes CATEGORY dissolve","[75, 0, 65, 0, 80, u'?', 90, 0, 0, 80, 90]",5,10,"speaker",60,"compound","make the rocks dissolve","rare_strong","crullets",1,"rocks"
222,56215,"causals","plant grow indoors",0,"makes CATEGORY grow tall","[0, 20, 0, u'?', 10, 0, 0, 15, 0, 20, 0]",3,10,"speaker",60,"fertilizer","make the plants grow tall","rare_weak","ackles",0,"plants"
223,29983,"causals","plant grow indoors",0,"makes CATEGORY grow tall","[0, 0, u'?', 100, 100, 0, 0, 100, 0, 0, 100]",2,10,"speaker",60,"fertilizer","make the plants grow tall","rare_deterministic","blins",0,"plants"
224,59860,"causals","plant grow indoors",0,"makes CATEGORY grow tall","[75, 0, 65, 0, 80, 90, u'?', 0, 0, 80, 90]",6,10,"speaker",20,"fertilizer","make the plants grow tall","rare_strong","crullets",0,"plants"
225,45838,"causals","plant grow indoors",0,"makes CATEGORY grow tall","[0, 20, 0, 10, 0, 0, u'?', 15, 0, 20, 0]",6,10,"speaker",20,"fertilizer","make the plants grow tall","rare_weak","thups",1,"plants"
226,94926,"causals","plant grow indoors",0,"makes CATEGORY grow tall","[0, 20, u'?', 0, 10, 0, 0, 15, 0, 20, 0]",2,10,"speaker",60,"fertilizer","make the plants grow tall","rare_weak","reesles",1,"plants"
227,110303,"causals","animal make sleepy",0,"makes CATEGORY sleepy","[0, 20, u'?', 0, 10, 0, 0, 15, 0, 20, 0]",2,10,"speaker",20,"herb","make the animals sleepy","rare_weak","glippets",0,"animals"
228,115833,"causals","animal make sleepy",0,"makes CATEGORY sleepy","[85, 75, 15, 75, 10, u'?', 90, 90, 80, 10, 20]",5,10,"speaker",60,"herb","make the animals sleepy","weak_or_strong","moxes",1,"animals"
229,45240,"causals","rocks dissolve",0,"makes CATEGORY dissolve","[85, 75, 15, 75, 10, 90, 90, 80, u'?', 10, 20]",8,10,"speaker",60,"compound","make the rocks dissolve","weak_or_strong","plovs",1,"rocks"
230,116640,"causals","plant grow indoors",0,"makes CATEGORY grow tall","[0, u'?', 20, 0, 10, 0, 0, 15, 0, 20, 0]",1,10,"speaker",60,"fertilizer","make the plants grow tall","rare_weak","kazzes",1,"plants"
231,39845,"causals","plant grow indoors",0,"makes CATEGORY grow tall","[75, 0, 65, 0, 80, 90, u'?', 0, 0, 80, 90]",6,10,"speaker",20,"fertilizer","make the plants grow tall","rare_strong","dorbs",1,"plants"
232,83305,"causals","plant grow indoors",0,"makes CATEGORY grow tall","[0, 20, 0, 10, 0, 0, 15, u'?', 0, 20, 0]",7,10,"speaker",20,"fertilizer","make the plants grow tall","rare_weak","stups",1,"plants"
233,149126,"causals","plant grow indoors",0,"makes CATEGORY grow tall","[0, 20, 0, 10, u'?', 0, 0, 15, 0, 20, 0]",4,10,"speaker",20,"fertilizer","make the plants grow tall","rare_weak","kweps",1,"plants"
234,39264,"causals","plant grow indoors",0,"makes CATEGORY grow tall","[0, 0, 100, 100, 0, 0, 100, 0, u'?', 0, 100]",8,10,"speaker",20,"fertilizer","make the plants grow tall","rare_deterministic","thups",0,"plants"
235,120828,"causals","rocks dissolve",0,"makes CATEGORY dissolve","[75, 65, 65, 75, u'?', 80, 90, 80, 75, 80, 90]",4,10,"speaker",20,"compound","make the rocks dissolve","common_strong","frams",1,"rocks"
236,64257,"causals","rocks dissolve",0,"makes CATEGORY dissolve","[0, u'?', 0, 100, 100, 0, 0, 100, 0, 0, 100]",1,10,"speaker",20,"compound","make the rocks dissolve","rare_deterministic","dorbs",0,"rocks"
237,16018,"causals","animal make sleepy",0,"makes CATEGORY sleepy","[0, 20, 0, u'?', 10, 0, 0, 15, 0, 20, 0]",3,10,"speaker",20,"herb","make the animals sleepy","rare_weak","trufts",1,"animals"
238,108869,"causals","animal make sleepy",0,"makes CATEGORY sleepy","[0, 20, 0, 10, 0, 0, u'?', 15, 0, 20, 0]",6,10,"speaker",20,"herb","make the animals sleepy","rare_weak","frams",1,"animals"
239,74606,"causals","plant grow indoors",0,"makes CATEGORY grow tall","[10, 20, 15, 10, 15, 20, 10, 10, u'?', 15, 20]",8,10,"speaker",60,"fertilizer","make the plants grow tall","common_weak","plovs",1,"plants"
240,80244,"causals","rocks dissolve",0,"makes CATEGORY dissolve","[75, 65, 65, 75, 80, 90, 80, u'?', 75, 80, 90]",7,10,"speaker",20,"compound","make the rocks dissolve","common_strong","wugs",1,"rocks"
241,218240,"causals","plant grow indoors",0,"makes CATEGORY grow tall","[85, 75, 15, u'?', 75, 10, 90, 90, 80, 10, 20]",3,10,"speaker",60,"fertilizer","make the plants grow tall","weak_or_strong","morseths",1,"plants"
242,44988,"causals","animal make sleepy",0,"makes CATEGORY sleepy","[75, 0, 65, 0, 80, 90, u'?', 0, 0, 80, 90]",6,10,"speaker",60,"herb","make the animals sleepy","rare_strong","kweps",0,"animals"
243,42870,"causals","plant grow indoors",0,"makes CATEGORY grow tall","[85, 75, 15, 75, 10, 90, 90, u'?', 80, 10, 20]",7,10,"speaker",60,"fertilizer","make the plants grow tall","weak_or_strong","zorbs",1,"plants"
244,224631,"causals","rocks dissolve",0,"makes CATEGORY dissolve","[75, 0, u'?', 65, 0, 80, 90, 0, 0, 80, 90]",2,10,"speaker",60,"compound","make the rocks dissolve","rare_strong","dorbs",1,"rocks"
245,47411,"causals","animal make sleepy",0,"makes CATEGORY sleepy","[0, 0, 100, 100, 0, 0, u'?', 100, 0, 0, 100]",6,10,"speaker",60,"herb","make the animals sleepy","rare_deterministic","kweps",1,"animals"
246,97092,"causals","animal make sleepy",0,"makes CATEGORY sleepy","[75, 65, 65, 75, 80, u'?', 90, 80, 75, 80, 90]",5,10,"speaker",20,"herb","make the animals sleepy","common_strong","morseths",1,"animals"
247,69785,"causals","rocks dissolve",0,"makes CATEGORY dissolve","[75, 0, 65, 0, 80, u'?', 90, 0, 0, 80, 90]",5,10,"speaker",20,"compound","make the rocks dissolve","rare_strong","kazzes",0,"rocks"
248,59309,"causals","plant grow indoors",0,"makes CATEGORY grow tall","[0, 0, 100, 100, 0, 0, 100, 0, u'?', 0, 100]",8,10,"speaker",60,"fertilizer","make the plants grow tall","rare_deterministic","feps",0,"plants"
249,72629,"causals","plant grow indoors",0,"makes CATEGORY grow tall","[75, 0, 65, 0, 80, u'?', 90, 0, 0, 80, 90]",5,10,"speaker",20,"fertilizer","make the plants grow tall","rare_strong","reesles",1,"plants"
250,84600,"causals","animal make sleepy",0,"makes CATEGORY sleepy","[75, 0, 65, 0, u'?', 80, 90, 0, 0, 80, 90]",4,10,"speaker",20,"herb","make the animals sleepy","rare_strong","cheebas",0,"animals"
251,45851,"causals","rocks dissolve",0,"makes CATEGORY dissolve","[10, 20, 15, 10, 15, u'?', 20, 10, 10, 15, 20]",5,10,"speaker",60,"compound","make the rocks dissolve","common_weak","stups",1,"rocks"
252,66876,"causals","animal make sleepy",0,"makes CATEGORY sleepy","[0, 20, 0, 10, 0, 0, 15, u'?', 0, 20, 0]",7,10,"speaker",20,"herb","make the animals sleepy","rare_weak","crullets",1,"animals"
253,141504,"causals","animal make sleepy",0,"makes CATEGORY sleepy","[75, 0, 65, 0, 80, 90, 0, u'?', 0, 80, 90]",7,10,"speaker",60,"herb","make the animals sleepy","rare_strong","feps",1,"animals"
254,40137,"causals","animal make sleepy",0,"makes CATEGORY sleepy","[75, 0, 65, 0, u'?', 80, 90, 0, 0, 80, 90]",4,10,"speaker",20,"herb","make the animals sleepy","rare_strong","sapers",0,"animals"
255,58490,"causals","rocks dissolve",0,"makes CATEGORY dissolve","[0, 20, u'?', 0, 10, 0, 0, 15, 0, 20, 0]",2,10,"speaker",20,"compound","make the rocks dissolve","rare_weak","grinks",1,"rocks"
256,63806,"causals","rocks dissolve",0,"makes CATEGORY dissolve","[85, 75, 15, 75, 10, 90, u'?', 90, 80, 10, 20]",6,10,"speaker",60,"compound","make the rocks dissolve","weak_or_strong","pangolins",0,"rocks"
257,12781,"causals","animal make sleepy",0,"makes CATEGORY sleepy","[75, 0, u'?', 65, 0, 80, 90, 0, 0, 80, 90]",2,10,"speaker",20,"herb","make the animals sleepy","rare_strong","javs",1,"animals"
258,86585,"causals","animal make sleepy",0,"makes CATEGORY sleepy","[85, 75, 15, 75, 10, 90, u'?', 90, 80, 10, 20]",6,10,"speaker",20,"herb","make the animals sleepy","weak_or_strong","taifels",0,"animals"
259,103310,"causals","animal make sleepy",0,"makes CATEGORY sleepy","[10, 20, 15, 10, u'?', 15, 20, 10, 10, 15, 20]",4,10,"speaker",60,"herb","make the animals sleepy","common_weak","sapers",1,"animals"
260,68192,"causals","animal make sleepy",0,"makes CATEGORY sleepy","[0, 0, 100, 100, u'?', 0, 0, 100, 0, 0, 100]",4,10,"speaker",20,"herb","make the animals sleepy","rare_deterministic","javs",0,"animals"
261,78405,"causals","rocks dissolve",0,"makes CATEGORY dissolve","[10, 20, 15, 10, u'?', 15, 20, 10, 10, 15, 20]",4,10,"speaker",20,"compound","make the rocks dissolve","common_weak","feps",1,"rocks"
262,75231,"causals","animal make sleepy",0,"makes CATEGORY sleepy","[75, 65, 65, 75, 80, 90, 80, 75, u'?', 80, 90]",8,10,"speaker",60,"herb","make the animals sleepy","common_strong","blins",0,"animals"
263,111471,"causals","rocks dissolve",0,"makes CATEGORY dissolve","[85, 75, 15, 75, 10, 90, u'?', 90, 80, 10, 20]",6,10,"speaker",20,"compound","make the rocks dissolve","weak_or_strong","sapers",1,"rocks"
264,116446,"causals","plant grow indoors",0,"makes CATEGORY grow tall","[0, 20, 0, 10, 0, u'?', 0, 15, 0, 20, 0]",5,10,"speaker",60,"fertilizer","make the plants grow tall","rare_weak","glippets",0,"plants"
265,46563,"causals","rocks dissolve",0,"makes CATEGORY dissolve","[75, 65, u'?', 65, 75, 80, 90, 80, 75, 80, 90]",2,10,"speaker",60,"compound","make the rocks dissolve","common_strong","cheebas",0,"rocks"
266,83209,"causals","rocks dissolve",0,"makes CATEGORY dissolve","[0, 20, 0, 10, u'?', 0, 0, 15, 0, 20, 0]",4,10,"speaker",20,"compound","make the rocks dissolve","rare_weak","grinks",1,"rocks"
267,90325,"causals","rocks dissolve",0,"makes CATEGORY dissolve","[0, 0, u'?', 100, 100, 0, 0, 100, 0, 0, 100]",2,10,"speaker",20,"compound","make the rocks dissolve","rare_deterministic","crullets",1,"rocks"
268,282543,"causals","rocks dissolve",0,"makes CATEGORY dissolve","[85, 75, u'?', 15, 75, 10, 90, 90, 80, 10, 20]",2,10,"speaker",20,"compound","make the rocks dissolve","weak_or_strong","moxes",0,"rocks"
269,94311,"causals","plant grow indoors",0,"makes CATEGORY grow tall","[75, 65, 65, 75, 80, u'?', 90, 80, 75, 80, 90]",5,10,"speaker",20,"fertilizer","make the plants grow tall","common_strong","cheebas",0,"plants"
270,140983,"causals","plant grow indoors",0,"makes CATEGORY grow tall","[75, 0, 65, 0, 80, 90, 0, 0, u'?', 80, 90]",8,10,"speaker",60,"fertilizer","make the plants grow tall","rare_strong","dorbs",1,"plants"
271,43362,"causals","rocks dissolve",0,"makes CATEGORY dissolve","[75, 0, 65, 0, 80, u'?', 90, 0, 0, 80, 90]",5,10,"speaker",20,"compound","make the rocks dissolve","rare_strong","reesles",1,"rocks"
272,57690,"causals","animal make sleepy",0,"makes CATEGORY sleepy","[0, 20, 0, 10, 0, 0, 15, u'?', 0, 20, 0]",7,10,"speaker",20,"herb","make the animals sleepy","rare_weak","morseths",0,"animals"
273,60454,"causals","animal make sleepy",0,"makes CATEGORY sleepy","[75, 65, u'?', 65, 75, 80, 90, 80, 75, 80, 90]",2,10,"speaker",60,"herb","make the animals sleepy","common_strong","crullets",1,"animals"
274,53288,"causals","plant grow indoors",0,"makes CATEGORY grow tall","[75, 65, 65, 75, 80, 90, 80, 75, u'?', 80, 90]",8,10,"speaker",60,"fertilizer","make the plants grow tall","common_strong","ackles",1,"plants"
275,58543,"causals","animal make sleepy",0,"makes CATEGORY sleepy","[75, u'?', 0, 65, 0, 80, 90, 0, 0, 80, 90]",1,10,"speaker",20,"herb","make the animals sleepy","rare_strong","ollers",1,"animals"
276,47048,"causals","plant grow indoors",0,"makes CATEGORY grow tall","[75, 0, 65, 0, 80, u'?', 90, 0, 0, 80, 90]",5,10,"speaker",20,"fertilizer","make the plants grow tall","rare_strong","wugs",0,"plants"
277,38075,"causals","animal make sleepy",0,"makes CATEGORY sleepy","[0, 20, 0, 10, 0, 0, 15, u'?', 0, 20, 0]",7,10,"speaker",60,"herb","make the animals sleepy","rare_weak","daiths",1,"animals"
278,49019,"causals","rocks dissolve",0,"makes CATEGORY dissolve","[10, 20, 15, 10, u'?', 15, 20, 10, 10, 15, 20]",4,10,"speaker",60,"compound","make the rocks dissolve","common_weak","dorbs",1,"rocks"
279,73648,"causals","rocks dissolve",0,"makes CATEGORY dissolve","[85, 75, 15, 75, u'?', 10, 90, 90, 80, 10, 20]",4,10,"speaker",20,"compound","make the rocks dissolve","weak_or_strong","plovs",1,"rocks"
280,67930,"causals","rocks dissolve",0,"makes CATEGORY dissolve","[75, 65, u'?', 65, 75, 80, 90, 80, 75, 80, 90]",2,10,"speaker",20,"compound","make the rocks dissolve","common_strong","plovs",1,"rocks"
281,92485,"causals","animal make sleepy",0,"makes CATEGORY sleepy","[10, 20, 15, 10, 15, u'?', 20, 10, 10, 15, 20]",5,10,"speaker",60,"herb","make the animals sleepy","common_weak","lorches",1,"animals"
282,86838,"causals","animal make sleepy",0,"makes CATEGORY sleepy","[75, 65, 65, u'?', 75, 80, 90, 80, 75, 80, 90]",3,10,"speaker",60,"herb","make the animals sleepy","common_strong","pangolins",0,"animals"
283,76898,"causals","rocks dissolve",0,"makes CATEGORY dissolve","[75, u'?', 0, 65, 0, 80, 90, 0, 0, 80, 90]",1,10,"speaker",20,"compound","make the rocks dissolve","rare_strong","blins",1,"rocks"
284,95074,"causals","plant grow indoors",0,"makes CATEGORY grow tall","[75, 0, 65, 0, 80, 90, 0, 0, u'?', 80, 90]",8,10,"speaker",20,"fertilizer","make the plants grow tall","rare_strong","wugs",0,"plants"
285,40387,"causals","plant grow indoors",0,"makes CATEGORY grow tall","[10, 20, 15, 10, 15, u'?', 20, 10, 10, 15, 20]",5,10,"speaker",20,"fertilizer","make the plants grow tall","common_weak","plovs",1,"plants"
286,57965,"causals","plant grow indoors",0,"makes CATEGORY grow tall","[75, 65, 65, 75, 80, u'?', 90, 80, 75, 80, 90]",5,10,"speaker",20,"fertilizer","make the plants grow tall","common_strong","moxes",1,"plants"
287,53024,"causals","plant grow indoors",0,"makes CATEGORY grow tall","[0, 0, 100, 100, 0, 0, u'?', 100, 0, 0, 100]",6,10,"speaker",60,"fertilizer","make the plants grow tall","rare_deterministic","dorbs",1,"plants"
288,32078,"causals","rocks dissolve",0,"makes CATEGORY dissolve","[75, 0, u'?', 65, 0, 80, 90, 0, 0, 80, 90]",2,10,"speaker",20,"compound","make the rocks dissolve","rare_strong","moxes",1,"rocks"
289,56653,"causals","animal make sleepy",0,"makes CATEGORY sleepy","[0, 0, 100, 100, 0, u'?', 0, 100, 0, 0, 100]",5,10,"speaker",60,"herb","make the animals sleepy","rare_deterministic","lorches",1,"animals"
290,36833,"causals","animal make sleepy",0,"makes CATEGORY sleepy","[0, 0, 100, u'?', 100, 0, 0, 100, 0, 0, 100]",3,10,"speaker",20,"herb","make the animals sleepy","rare_deterministic","plovs",0,"animals"
291,74626,"causals","animal make sleepy",0,"makes CATEGORY sleepy","[75, 0, 65, u'?', 0, 80, 90, 0, 0, 80, 90]",3,10,"speaker",60,"herb","make the animals sleepy","rare_strong","feps",1,"animals"
292,90783,"causals","plant grow indoors",0,"makes CATEGORY grow tall","[75, 65, 65, u'?', 75, 80, 90, 80, 75, 80, 90]",3,10,"speaker",60,"fertilizer","make the plants grow tall","common_strong","pangolins",1,"plants"
293,178687,"causals","animal make sleepy",0,"makes CATEGORY sleepy","[0, 0, 100, 100, 0, u'?', 0, 100, 0, 0, 100]",5,10,"speaker",60,"herb","make the animals sleepy","rare_deterministic","plovs",0,"animals"
294,99088,"causals","animal make sleepy",0,"makes CATEGORY sleepy","[0, 0, 100, 100, 0, 0, 100, u'?', 0, 0, 100]",7,10,"speaker",60,"herb","make the animals sleepy","rare_deterministic","ollers",1,"animals"
295,83305,"causals","plant grow indoors",0,"makes CATEGORY grow tall","[85, 75, 15, 75, 10, 90, 90, 80, u'?', 10, 20]",8,10,"speaker",60,"fertilizer","make the plants grow tall","weak_or_strong","dorbs",1,"plants"
296,104373,"causals","animal make sleepy",0,"makes CATEGORY sleepy","[85, 75, 15, 75, u'?', 10, 90, 90, 80, 10, 20]",4,10,"speaker",20,"herb","make the animals sleepy","weak_or_strong","ollers",0,"animals"
297,67792,"causals","plant grow indoors",0,"makes CATEGORY grow tall","[0, 20, 0, 10, 0, u'?', 0, 15, 0, 20, 0]",5,10,"speaker",20,"fertilizer","make the plants grow tall","rare_weak","trufts",0,"plants"
298,79710,"causals","plant grow indoors",0,"makes CATEGORY grow tall","[0, 20, 0, 10, 0, 0, u'?', 15, 0, 20, 0]",6,10,"speaker",60,"fertilizer","make the plants grow tall","rare_weak","cheebas",1,"plants"
299,45586,"causals","animal make sleepy",0,"makes CATEGORY sleepy","[0, 20, 0, 10, 0, 0, 15, u'?', 0, 20, 0]",7,10,"speaker",20,"herb","make the animals sleepy","rare_weak","feps",1,"animals"
