"workerid","rt","trial_type","trial_num","stim_determiner","stim_property","response","stim_category","stim_type"
0,2041,"implied_prevalence",0,"generic","legs",0.6,"ollers","part"
0,8076,"implied_prevalence",1,"generic","ears",0.97,"moxes","part"
0,2873,"implied_prevalence",2,"generic","rotten teeth",0.52,"trufts","disease"
0,2290,"implied_prevalence",3,"generic","sore legs",0.86,"kazzes","accidental"
0,4202,"implied_prevalence",4,"generic","orange ears",0.98,"dorbs","color"
0,4681,"implied_prevalence",5,"generic","tails",0.98,"kweps","part"
0,12577,"implied_prevalence",6,"generic","blue claws",0.78,"stups","color"
0,2330,"implied_prevalence",7,"generic","worn-out claws",0.96,"pangolins","disease"
0,1678,"implied_prevalence",8,"generic","wet fur",0.6,"ackles","accidental"
0,1648,"implied_prevalence",9,"generic","violet skin",0.86,"grinks","color"
0,2164,"implied_prevalence",10,"generic","infected ears",0.95,"elleps","disease"
0,8666,"implied_prevalence",11,"generic","torn feathers",0.6,"lorches","disease"
0,2056,"implied_prevalence",12,"generic","small ears",0.85,"sapers","vague"
0,2973,"implied_prevalence",13,"generic","silver legs",0.9,"cheebas","color"
0,3081,"implied_prevalence",14,"generic","orange tails",0.98,"zoovs","color"
0,1730,"implied_prevalence",15,"generic","feathers",0.87,"plovs","part"
0,1838,"implied_prevalence",16,"generic","claws",0.96,"blins","part"
0,1733,"implied_prevalence",17,"generic","long legs",0.77,"javs","vague"
0,1578,"implied_prevalence",18,"generic","sore teeth",0.94,"luzaks","accidental"
0,1436,"implied_prevalence",19,"generic","long teeth",0.67,"crullets","vague"
0,1398,"implied_prevalence",20,"generic","rough skin",0.88,"mooks","vague"
0,1626,"implied_prevalence",21,"generic","pink teeth",0.58,"morseths","color"
0,4718,"implied_prevalence",22,"generic","teeth",0.87,"thups","part"
0,2915,"implied_prevalence",23,"generic","swollen ears",0.94,"krivels","accidental"
0,1286,"implied_prevalence",24,"generic","muddy feathers",0.62,"wugs","accidental"
0,1954,"implied_prevalence",25,"generic","curly fur",0.51,"feps","vague"
0,1575,"implied_prevalence",26,"generic","broken legs",0.73,"zorbs","disease"
0,1281,"implied_prevalence",27,"generic","cracked claws",0.86,"glippets","accidental"
0,1609,"implied_prevalence",28,"generic","long tails",0.63,"daiths","vague"
0,1571,"implied_prevalence",29,"generic","fungus-covered fur",0.86,"taifels","disease"
1,4078,"implied_prevalence",0,"generic","ears",1,"morseths","part"
1,4745,"implied_prevalence",1,"generic","long legs",0.62,"zorbs","vague"
1,2053,"implied_prevalence",2,"generic","small ears",0.34,"elleps","vague"
1,2023,"implied_prevalence",3,"generic","teeth",1,"taifels","part"
1,2206,"implied_prevalence",4,"generic","smooth feathers",0.46,"moxes","vague"
1,2647,"implied_prevalence",5,"generic","violet skin",0.51,"kweps","color"
1,1493,"implied_prevalence",6,"generic","dusty skin",0.16,"blins","accidental"
1,1583,"implied_prevalence",7,"generic","rough skin",0.21,"luzaks","vague"
1,1925,"implied_prevalence",8,"generic","burned skin",0.08,"grinks","disease"
1,2508,"implied_prevalence",9,"generic","tails",1,"sapers","part"
1,2076,"implied_prevalence",10,"generic","rotten teeth",0.37,"dorbs","disease"
1,2302,"implied_prevalence",11,"generic","wet fur",0.72,"javs","accidental"
1,1713,"implied_prevalence",12,"generic","fur",0.81,"mooks","part"
1,3699,"implied_prevalence",13,"generic","yellow fur",0.51,"feps","color"
1,1849,"implied_prevalence",14,"generic","sore teeth",0.22,"glippets","accidental"
1,1658,"implied_prevalence",15,"generic","silver legs",0.16,"pangolins","color"
1,1651,"implied_prevalence",16,"generic","cracked claws",0.12,"wugs","accidental"
1,1377,"implied_prevalence",17,"generic","feathers",0.72,"ollers","part"
1,2471,"implied_prevalence",18,"generic","orange tails",0.09,"kazzes","color"
1,4822,"implied_prevalence",19,"generic","swollen ears",0.11,"cheebas","accidental"
1,3473,"implied_prevalence",20,"generic","purple feathers",0.11,"plovs","color"
1,1889,"implied_prevalence",21,"generic","pink teeth",0.08,"krivels","color"
1,1396,"implied_prevalence",22,"generic","claws",0.57,"zoovs","part"
1,1695,"implied_prevalence",23,"generic","broken legs",0.04,"thups","disease"
1,1561,"implied_prevalence",24,"generic","worn-out claws",0.06,"reesles","disease"
1,1412,"implied_prevalence",25,"generic","itchy tails",0.14,"lorches","accidental"
1,1693,"implied_prevalence",26,"generic","curly fur",0.48,"stups","vague"
1,1499,"implied_prevalence",27,"generic","torn tails",0.1,"crullets","disease"
1,1748,"implied_prevalence",28,"generic","fungus-covered fur",0.08,"trufts","disease"
1,1698,"implied_prevalence",29,"generic","big claws",0.6,"daiths","vague"
2,9216,"implied_prevalence",0,"generic","sore legs",1,"taifels","accidental"
2,5038,"implied_prevalence",1,"generic","violet skin",0.99,"mooks","color"
2,5229,"implied_prevalence",2,"generic","smooth feathers",1,"dorbs","vague"
2,4007,"implied_prevalence",3,"generic","tails",1,"sapers","part"
2,6357,"implied_prevalence",4,"generic","dusty skin",0.95,"pangolins","accidental"
2,4334,"implied_prevalence",5,"generic","claws",0.95,"thups","part"
2,5068,"implied_prevalence",6,"generic","purple feathers",1,"kweps","color"
2,6281,"implied_prevalence",7,"generic","infected ears",0.84,"blins","disease"
2,4153,"implied_prevalence",8,"generic","silver legs",0.9,"kazzes","color"
2,7996,"implied_prevalence",9,"generic","burned skin",0.8,"elleps","disease"
2,4671,"implied_prevalence",10,"generic","rough skin",0.8,"feps","vague"
2,7501,"implied_prevalence",11,"generic","wet fur",0.69,"glippets","accidental"
2,6989,"implied_prevalence",12,"generic","sore teeth",0.75,"luzaks","accidental"
2,6112,"implied_prevalence",13,"generic","itchy tails",0.7,"stups","accidental"
2,5281,"implied_prevalence",14,"generic","teeth",1,"ollers","part"
2,6479,"implied_prevalence",15,"generic","big claws",0.8,"moxes","vague"
2,5693,"implied_prevalence",16,"generic","fungus-covered fur",0.59,"javs","disease"
2,4288,"implied_prevalence",17,"generic","rotten teeth",0.75,"daiths","disease"
2,6809,"implied_prevalence",18,"generic","orange tails",0.9,"lorches","color"
2,2839,"implied_prevalence",19,"generic","legs",1,"trufts","part"
2,4986,"implied_prevalence",20,"generic","torn tails",0.49,"ackles","disease"
2,6349,"implied_prevalence",21,"generic","swollen ears",0.65,"krivels","accidental"
2,5521,"implied_prevalence",22,"generic","feathers",0.84,"morseths","part"
2,4194,"implied_prevalence",23,"generic","blue claws",0.95,"zoovs","color"
2,2490,"implied_prevalence",24,"generic","skin",1,"frams","part"
2,3561,"implied_prevalence",25,"generic","long teeth",0.94,"crullets","vague"
2,4216,"implied_prevalence",26,"generic","small ears",0.81,"reesles","vague"
2,4950,"implied_prevalence",27,"generic","long legs",0.9,"plovs","vague"
2,4482,"implied_prevalence",28,"generic","worn-out claws",0.5,"cheebas","disease"
2,7652,"implied_prevalence",29,"generic","pink teeth",0.41,"grinks","color"
3,6354,"implied_prevalence",0,"generic","pink teeth",1,"lorches","color"
3,9193,"implied_prevalence",1,"generic","swollen ears",0.83,"krivels","accidental"
3,6161,"implied_prevalence",2,"generic","yellow fur",0.53,"plovs","color"
3,3441,"implied_prevalence",3,"generic","sore teeth",0.72,"zoovs","accidental"
3,7820,"implied_prevalence",4,"generic","smooth feathers",0.52,"grinks","vague"
3,2466,"implied_prevalence",5,"generic","dusty skin",0.29,"glippets","accidental"
3,4868,"implied_prevalence",6,"generic","teeth",0.81,"luzaks","part"
3,9359,"implied_prevalence",7,"generic","cracked claws",0.12,"feps","accidental"
3,2778,"implied_prevalence",8,"generic","infected ears",0.4,"ackles","disease"
3,5171,"implied_prevalence",9,"generic","rotten teeth",0.18,"daiths","disease"
3,5268,"implied_prevalence",10,"generic","rough skin",0.59,"pangolins","vague"
3,4659,"implied_prevalence",11,"generic","purple feathers",0.7,"crullets","color"
3,62793,"implied_prevalence",12,"generic","curly fur",0.85,"kweps","vague"
3,5962,"implied_prevalence",13,"generic","feathers",0.68,"sapers","part"
3,8658,"implied_prevalence",14,"generic","silver legs",0.87,"morseths","color"
3,3486,"implied_prevalence",15,"generic","burned skin",0.72,"kazzes","disease"
3,3714,"implied_prevalence",16,"generic","fungus-covered fur",0.19,"elleps","disease"
3,4080,"implied_prevalence",17,"generic","blue claws",0.98,"mooks","color"
3,2442,"implied_prevalence",18,"generic","small ears",0.62,"ollers","vague"
3,1736,"implied_prevalence",19,"generic","orange ears",0.41,"blins","color"
3,4132,"implied_prevalence",20,"generic","broken legs",0.04,"reesles","disease"
3,5742,"implied_prevalence",21,"generic","itchy tails",0.32,"zorbs","accidental"
3,3142,"implied_prevalence",22,"generic","long tails",0.68,"frams","vague"
3,3250,"implied_prevalence",23,"generic","sore legs",0.92,"cheebas","accidental"
3,4762,"implied_prevalence",24,"generic","skin",1,"taifels","part"
3,2584,"implied_prevalence",25,"generic","big claws",0.57,"moxes","vague"
3,2465,"implied_prevalence",26,"generic","tails",0.05,"javs","part"
3,3276,"implied_prevalence",27,"generic","ears",0.98,"wugs","part"
3,4035,"implied_prevalence",28,"generic","torn tails",0.32,"thups","disease"
3,2590,"implied_prevalence",29,"generic","fur",0.62,"dorbs","part"
4,6863,"implied_prevalence",0,"generic","fur",0.91,"glippets","part"
4,4568,"implied_prevalence",1,"generic","purple feathers",0.84,"feps","color"
4,4047,"implied_prevalence",2,"generic","smooth feathers",0.85,"krivels","vague"
4,2608,"implied_prevalence",3,"generic","pink teeth",0.76,"thups","color"
4,3168,"implied_prevalence",4,"generic","dusty skin",0.77,"zoovs","accidental"
4,2135,"implied_prevalence",5,"generic","rough skin",0.86,"wugs","vague"
4,41471,"implied_prevalence",6,"generic","skin",0.75,"stups","part"
4,2976,"implied_prevalence",7,"generic","yellow fur",0.88,"javs","color"
4,3975,"implied_prevalence",8,"generic","itchy tails",0.75,"elleps","accidental"
4,3377,"implied_prevalence",9,"generic","muddy feathers",0.8,"morseths","accidental"
4,1784,"implied_prevalence",10,"generic","orange tails",0.82,"trufts","color"
4,3048,"implied_prevalence",11,"generic","rotten teeth",0.94,"kazzes","disease"
4,3407,"implied_prevalence",12,"generic","infected ears",0.54,"crullets","disease"
4,2145,"implied_prevalence",13,"generic","silver legs",0.64,"pangolins","color"
4,3336,"implied_prevalence",14,"generic","long teeth",0.74,"daiths","vague"
4,2879,"implied_prevalence",15,"generic","ears",0.96,"cheebas","part"
4,2072,"implied_prevalence",16,"generic","claws",0.95,"frams","part"
4,2489,"implied_prevalence",17,"generic","wet fur",0.53,"dorbs","accidental"
4,1951,"implied_prevalence",18,"generic","violet skin",0.6,"plovs","color"
4,2647,"implied_prevalence",19,"generic","torn feathers",0.5,"taifels","disease"
4,2007,"implied_prevalence",20,"generic","long legs",0.88,"blins","vague"
4,1280,"implied_prevalence",21,"generic","tails",0.87,"grinks","part"
4,1488,"implied_prevalence",22,"generic","curly fur",0.87,"lorches","vague"
4,2496,"implied_prevalence",23,"generic","swollen ears",0.71,"reesles","accidental"
4,1384,"implied_prevalence",24,"generic","worn-out claws",0.86,"zorbs","disease"
4,1352,"implied_prevalence",25,"generic","torn tails",0.89,"luzaks","disease"
4,1640,"implied_prevalence",26,"generic","fungus-covered fur",0.89,"ollers","disease"
4,11103,"implied_prevalence",27,"generic","teeth",0.9,"kweps","part"
4,27040,"implied_prevalence",28,"generic","small ears",0.89,"ackles","vague"
4,1519,"implied_prevalence",29,"generic","sore legs",0.79,"sapers","accidental"
5,5540,"implied_prevalence",0,"generic","rough skin",0.49,"reesles","vague"
5,2480,"implied_prevalence",1,"generic","purple feathers",0.37,"lorches","color"
5,2446,"implied_prevalence",2,"generic","torn tails",0.6,"zoovs","disease"
5,1775,"implied_prevalence",3,"generic","skin",0.39,"moxes","part"
5,1567,"implied_prevalence",4,"generic","yellow fur",0.49,"taifels","color"
5,2815,"implied_prevalence",5,"generic","legs",0.65,"crullets","part"
5,1727,"implied_prevalence",6,"generic","orange ears",0.68,"elleps","color"
5,1463,"implied_prevalence",7,"generic","long tails",0.5,"frams","vague"
5,1560,"implied_prevalence",8,"generic","torn feathers",0.3,"cheebas","disease"
5,2023,"implied_prevalence",9,"generic","long legs",0.44,"blins","vague"
5,1304,"implied_prevalence",10,"generic","claws",0.54,"luzaks","part"
5,1282,"implied_prevalence",11,"generic","worn-out claws",0.62,"plovs","disease"
5,1885,"implied_prevalence",12,"generic","infected ears",0.45,"feps","disease"
5,1521,"implied_prevalence",13,"generic","smooth feathers",0.38,"trufts","vague"
5,1230,"implied_prevalence",14,"generic","dusty skin",0.59,"kazzes","accidental"
5,1223,"implied_prevalence",15,"generic","blue claws",0.7,"mooks","color"
5,1271,"implied_prevalence",16,"generic","orange tails",0.48,"morseths","color"
5,1407,"implied_prevalence",17,"generic","big claws",0.38,"ackles","vague"
5,1264,"implied_prevalence",18,"generic","sore legs",0.54,"pangolins","accidental"
5,1256,"implied_prevalence",19,"generic","ears",0.46,"sapers","part"
5,1239,"implied_prevalence",20,"generic","feathers",0.38,"ollers","part"
5,1271,"implied_prevalence",21,"generic","wet fur",0.54,"glippets","accidental"
5,1072,"implied_prevalence",22,"generic","itchy tails",0.41,"grinks","accidental"
5,1255,"implied_prevalence",23,"generic","muddy feathers",0.48,"wugs","accidental"
5,1543,"implied_prevalence",24,"generic","tails",0.39,"zorbs","part"
5,1160,"implied_prevalence",25,"generic","burned skin",0.51,"stups","disease"
5,1215,"implied_prevalence",26,"generic","silver legs",0.59,"dorbs","color"
5,1143,"implied_prevalence",27,"generic","cracked claws",0.5,"daiths","accidental"
5,1279,"implied_prevalence",28,"generic","fungus-covered fur",0.44,"thups","disease"
5,1359,"implied_prevalence",29,"generic","curly fur",0.52,"krivels","vague"
6,4533,"implied_prevalence",0,"generic","yellow fur",0.67,"mooks","color"
6,4675,"implied_prevalence",1,"generic","torn feathers",1,"crullets","disease"
6,3572,"implied_prevalence",2,"generic","torn tails",1,"zoovs","disease"
6,2955,"implied_prevalence",3,"generic","orange tails",0.89,"lorches","color"
6,2552,"implied_prevalence",4,"generic","feathers",1,"feps","part"
6,2152,"implied_prevalence",5,"generic","smooth feathers",0.95,"plovs","vague"
6,2205,"implied_prevalence",6,"generic","infected ears",0.92,"taifels","disease"
6,3787,"implied_prevalence",7,"generic","long teeth",1,"kazzes","vague"
6,2454,"implied_prevalence",8,"generic","pink teeth",1,"elleps","color"
6,3072,"implied_prevalence",9,"generic","swollen ears",0.96,"glippets","accidental"
6,1982,"implied_prevalence",10,"generic","cracked claws",0.94,"stups","accidental"
6,2578,"implied_prevalence",11,"generic","curly fur",0.93,"grinks","vague"
6,4063,"implied_prevalence",12,"generic","silver legs",0.99,"luzaks","color"
6,3114,"implied_prevalence",13,"generic","wet fur",0.83,"dorbs","accidental"
6,2327,"implied_prevalence",14,"generic","burned skin",0.8,"blins","disease"
6,1841,"implied_prevalence",15,"generic","big claws",0.8,"zorbs","vague"
6,1868,"implied_prevalence",16,"generic","dusty skin",0.95,"ollers","accidental"
6,2012,"implied_prevalence",17,"generic","broken legs",0.94,"daiths","disease"
6,2433,"implied_prevalence",18,"generic","ears",1,"cheebas","part"
6,3185,"implied_prevalence",19,"generic","skin",1,"thups","part"
6,1662,"implied_prevalence",20,"generic","rough skin",0.94,"ackles","vague"
6,1396,"implied_prevalence",21,"generic","purple feathers",0.87,"trufts","color"
6,2172,"implied_prevalence",22,"generic","fur",0.84,"kweps","part"
6,2172,"implied_prevalence",23,"generic","itchy tails",0.9,"morseths","accidental"
6,27856,"implied_prevalence",24,"generic","sore legs",0.98,"reesles","accidental"
6,1533,"implied_prevalence",25,"generic","tails",0.96,"pangolins","part"
6,1267,"implied_prevalence",26,"generic","claws",0.85,"wugs","part"
6,1717,"implied_prevalence",27,"generic","violet skin",0.9,"sapers","color"
6,1592,"implied_prevalence",28,"generic","rotten teeth",0.92,"moxes","disease"
6,1497,"implied_prevalence",29,"generic","long legs",0.92,"frams","vague"
7,12016,"implied_prevalence",0,"generic","fungus-covered fur",0.9,"reesles","disease"
7,8631,"implied_prevalence",1,"generic","infected ears",0.15,"javs","disease"
7,5666,"implied_prevalence",2,"generic","purple feathers",1,"dorbs","color"
7,5696,"implied_prevalence",3,"generic","sore teeth",0.06,"mooks","accidental"
7,4040,"implied_prevalence",4,"generic","smooth feathers",1,"stups","vague"
7,4423,"implied_prevalence",5,"generic","cracked claws",0.21,"frams","accidental"
7,3505,"implied_prevalence",6,"generic","legs",1,"trufts","part"
7,8457,"implied_prevalence",7,"generic","orange tails",0.97,"moxes","color"
7,6216,"implied_prevalence",8,"generic","pink teeth",0.65,"ollers","color"
7,6122,"implied_prevalence",9,"generic","dusty skin",0.67,"morseths","accidental"
7,4495,"implied_prevalence",10,"generic","blue claws",0.87,"grinks","color"
7,2877,"implied_prevalence",11,"generic","fur",1,"wugs","part"
7,4163,"implied_prevalence",12,"generic","swollen ears",0.06,"glippets","accidental"
7,11266,"implied_prevalence",13,"generic","long legs",0.79,"kazzes","vague"
7,10302,"implied_prevalence",14,"generic","tails",1,"luzaks","part"
7,8632,"implied_prevalence",15,"generic","sore legs",0.04,"zoovs","accidental"
7,7210,"implied_prevalence",16,"generic","torn tails",0.11,"krivels","disease"
7,5624,"implied_prevalence",17,"generic","long teeth",0.86,"sapers","vague"
7,2439,"implied_prevalence",18,"generic","claws",1,"zorbs","part"
7,5695,"implied_prevalence",19,"generic","wet fur",0.16,"taifels","accidental"
7,3010,"implied_prevalence",20,"generic","violet skin",0.94,"elleps","color"
7,6238,"implied_prevalence",21,"generic","torn feathers",0.1,"thups","disease"
7,3826,"implied_prevalence",22,"generic","long tails",0.89,"daiths","vague"
7,4344,"implied_prevalence",23,"generic","broken legs",0.01,"plovs","disease"
7,5755,"implied_prevalence",24,"generic","teeth",1,"kweps","part"
7,2784,"implied_prevalence",25,"generic","skin",1,"ackles","part"
7,4559,"implied_prevalence",26,"generic","small ears",0.8,"lorches","vague"
7,3345,"implied_prevalence",27,"generic","rough skin",0.84,"pangolins","vague"
7,2968,"implied_prevalence",28,"generic","burned skin",0.1,"blins","disease"
7,2993,"implied_prevalence",29,"generic","orange ears",0.93,"crullets","color"
8,7324,"implied_prevalence",0,"generic","fungus-covered fur",0.97,"taifels","disease"
8,3614,"implied_prevalence",1,"generic","silver legs",0.81,"mooks","color"
8,6147,"implied_prevalence",2,"generic","blue claws",0.81,"zorbs","color"
8,7081,"implied_prevalence",3,"generic","legs",1,"ollers","part"
8,6091,"implied_prevalence",4,"generic","long legs",0.97,"dorbs","vague"
8,5302,"implied_prevalence",5,"generic","pink teeth",0.95,"stups","color"
8,4073,"implied_prevalence",6,"generic","rough skin",1,"wugs","vague"
8,3886,"implied_prevalence",7,"generic","orange ears",0.82,"moxes","color"
8,8215,"implied_prevalence",8,"generic","sore teeth",0.64,"grinks","accidental"
8,4352,"implied_prevalence",9,"generic","smooth feathers",1,"elleps","vague"
8,7317,"implied_prevalence",10,"generic","worn-out claws",0.76,"daiths","disease"
8,5922,"implied_prevalence",11,"generic","infected ears",0.27,"kazzes","disease"
8,5334,"implied_prevalence",12,"generic","orange tails",0.76,"krivels","color"
8,6077,"implied_prevalence",13,"generic","wet fur",0.86,"lorches","accidental"
8,4586,"implied_prevalence",14,"generic","claws",0.98,"sapers","part"
8,6655,"implied_prevalence",15,"generic","muddy feathers",0.66,"javs","accidental"
8,8121,"implied_prevalence",16,"generic","long teeth",0.79,"plovs","vague"
8,6191,"implied_prevalence",17,"generic","skin",1,"cheebas","part"
8,4102,"implied_prevalence",18,"generic","ears",1,"zoovs","part"
8,5999,"implied_prevalence",19,"generic","broken legs",0.09,"ackles","disease"
8,4131,"implied_prevalence",20,"generic","rotten teeth",0.27,"blins","disease"
8,4224,"implied_prevalence",21,"generic","long tails",0.95,"morseths","vague"
8,4834,"implied_prevalence",22,"generic","teeth",0.87,"reesles","part"
8,8326,"implied_prevalence",23,"generic","dusty skin",0.91,"thups","accidental"
8,4209,"implied_prevalence",24,"generic","sore legs",0.22,"frams","accidental"
8,5240,"implied_prevalence",25,"generic","itchy tails",0.7,"glippets","accidental"
8,3764,"implied_prevalence",26,"generic","small ears",0.98,"feps","vague"
8,4643,"implied_prevalence",27,"generic","torn tails",0.26,"trufts","disease"
8,4567,"implied_prevalence",28,"generic","feathers",1,"kweps","part"
8,3323,"implied_prevalence",29,"generic","yellow fur",0.88,"luzaks","color"
9,8500,"implied_prevalence",0,"generic","silver legs",0,"wugs","color"
9,11183,"implied_prevalence",1,"generic","blue claws",1,"ollers","color"
9,5383,"implied_prevalence",2,"generic","rough skin",1,"kweps","vague"
9,3332,"implied_prevalence",3,"generic","wet fur",1,"dorbs","accidental"
9,4368,"implied_prevalence",4,"generic","purple feathers",1,"zoovs","color"
9,3335,"implied_prevalence",5,"generic","swollen ears",1,"sapers","accidental"
9,4376,"implied_prevalence",6,"generic","burned skin",1,"frams","disease"
9,2680,"implied_prevalence",7,"generic","tails",1,"javs","part"
9,2625,"implied_prevalence",8,"generic","skin",1,"reesles","part"
9,2235,"implied_prevalence",9,"generic","teeth",1,"zorbs","part"
9,1733,"implied_prevalence",10,"generic","smooth feathers",1,"krivels","vague"
9,2049,"implied_prevalence",11,"generic","long teeth",1,"daiths","vague"
9,2133,"implied_prevalence",12,"generic","small ears",1,"grinks","vague"
9,1742,"implied_prevalence",13,"generic","sore teeth",1,"feps","accidental"
9,1419,"implied_prevalence",14,"generic","itchy tails",1,"moxes","accidental"
9,2022,"implied_prevalence",15,"generic","cracked claws",1,"glippets","accidental"
9,1635,"implied_prevalence",16,"generic","violet skin",1,"lorches","color"
9,2416,"implied_prevalence",17,"generic","feathers",1,"mooks","part"
9,2903,"implied_prevalence",18,"generic","fur",1,"blins","part"
9,2076,"implied_prevalence",19,"generic","orange tails",1,"thups","color"
9,1571,"implied_prevalence",20,"generic","pink teeth",1,"ackles","color"
9,1233,"implied_prevalence",21,"generic","long tails",1,"luzaks","vague"
9,1779,"implied_prevalence",22,"generic","infected ears",1,"crullets","disease"
9,1368,"implied_prevalence",23,"generic","big claws",1,"taifels","vague"
9,3553,"implied_prevalence",24,"generic","worn-out claws",1,"stups","disease"
9,68912,"implied_prevalence",25,"generic","claws",1,"pangolins","part"
9,2121,"implied_prevalence",26,"generic","dusty skin",1,"cheebas","accidental"
9,7933,"implied_prevalence",27,"generic","fungus-covered fur",1,"elleps","disease"
9,2077,"implied_prevalence",28,"generic","rotten teeth",1,"trufts","disease"
9,2359,"implied_prevalence",29,"generic","torn feathers",1,"morseths","disease"
10,10323,"implied_prevalence",0,"generic","big claws",0.83,"thups","vague"
10,4902,"implied_prevalence",1,"generic","itchy tails",0.82,"zoovs","accidental"
10,4000,"implied_prevalence",2,"generic","silver legs",0.75,"blins","color"
10,4693,"implied_prevalence",3,"generic","torn tails",0.91,"taifels","disease"
10,6398,"implied_prevalence",4,"generic","broken legs",0.37,"wugs","disease"
10,2684,"implied_prevalence",5,"generic","long tails",0.94,"mooks","vague"
10,3199,"implied_prevalence",6,"generic","curly fur",0.87,"cheebas","vague"
10,2914,"implied_prevalence",7,"generic","swollen ears",0.69,"stups","accidental"
10,2951,"implied_prevalence",8,"generic","dusty skin",0.85,"elleps","accidental"
10,3513,"implied_prevalence",9,"generic","muddy feathers",0.47,"zorbs","accidental"
10,2390,"implied_prevalence",10,"generic","purple feathers",0.8,"grinks","color"
10,2941,"implied_prevalence",11,"generic","ears",0.99,"luzaks","part"
10,3056,"implied_prevalence",12,"generic","teeth",0.97,"glippets","part"
10,2962,"implied_prevalence",13,"generic","sore legs",0.32,"ackles","accidental"
10,1941,"implied_prevalence",14,"generic","orange ears",0.88,"morseths","color"
10,1837,"implied_prevalence",15,"generic","cracked claws",0.82,"kweps","accidental"
10,2065,"implied_prevalence",16,"generic","smooth feathers",0.82,"crullets","vague"
10,3600,"implied_prevalence",17,"generic","burned skin",0.63,"feps","disease"
10,2951,"implied_prevalence",18,"generic","infected ears",0.35,"frams","disease"
10,2532,"implied_prevalence",19,"generic","feathers",0.98,"lorches","part"
10,2750,"implied_prevalence",20,"generic","worn-out claws",0.7,"daiths","disease"
10,2581,"implied_prevalence",21,"generic","orange tails",0.8,"reesles","color"
10,2275,"implied_prevalence",22,"generic","blue claws",0.81,"ollers","color"
10,7303,"implied_prevalence",23,"generic","rotten teeth",0.58,"trufts","disease"
10,2389,"implied_prevalence",24,"generic","yellow fur",0.84,"sapers","color"
10,2675,"implied_prevalence",25,"generic","legs",0.98,"javs","part"
10,2380,"implied_prevalence",26,"generic","fur",0.96,"krivels","part"
10,4218,"implied_prevalence",27,"generic","long legs",0.83,"kazzes","vague"
10,1752,"implied_prevalence",28,"generic","claws",0.95,"moxes","part"
10,2818,"implied_prevalence",29,"generic","rough skin",0.79,"pangolins","vague"
11,5940,"implied_prevalence",0,"generic","claws",0.94,"frams","part"
11,3910,"implied_prevalence",1,"generic","dusty skin",0.5,"blins","accidental"
11,3731,"implied_prevalence",2,"generic","worn-out claws",0.3,"cheebas","disease"
11,3806,"implied_prevalence",3,"generic","long tails",0.81,"glippets","vague"
11,10256,"implied_prevalence",4,"generic","purple feathers",0.62,"thups","color"
11,3959,"implied_prevalence",5,"generic","skin",0.97,"feps","part"
11,4135,"implied_prevalence",6,"generic","muddy feathers",0.26,"trufts","accidental"
11,4915,"implied_prevalence",7,"generic","long legs",0.97,"morseths","vague"
11,5651,"implied_prevalence",8,"generic","orange tails",0.46,"javs","color"
11,3859,"implied_prevalence",9,"generic","blue claws",0.73,"pangolins","color"
11,3011,"implied_prevalence",10,"generic","torn feathers",0.19,"luzaks","disease"
11,2647,"implied_prevalence",11,"generic","itchy tails",0.26,"krivels","accidental"
11,2831,"implied_prevalence",12,"generic","torn tails",0.39,"kazzes","disease"
11,4739,"implied_prevalence",13,"generic","fungus-covered fur",0.22,"elleps","disease"
11,3595,"implied_prevalence",14,"generic","small ears",0.81,"stups","vague"
11,3984,"implied_prevalence",15,"generic","sore teeth",0.19,"plovs","accidental"
11,2387,"implied_prevalence",16,"generic","rough skin",0.73,"reesles","vague"
11,3082,"implied_prevalence",17,"generic","swollen ears",0.32,"daiths","accidental"
11,3641,"implied_prevalence",18,"generic","orange ears",0.6,"ackles","color"
11,2840,"implied_prevalence",19,"generic","broken legs",0.05,"taifels","disease"
11,3564,"implied_prevalence",20,"generic","teeth",0.99,"dorbs","part"
11,2681,"implied_prevalence",21,"generic","tails",0.98,"zoovs","part"
11,3047,"implied_prevalence",22,"generic","smooth feathers",0.83,"wugs","vague"
11,3534,"implied_prevalence",23,"generic","violet skin",0.41,"crullets","color"
11,4000,"implied_prevalence",24,"generic","infected ears",0.07,"ollers","disease"
11,4597,"implied_prevalence",25,"generic","sore legs",0.15,"sapers","accidental"
11,3485,"implied_prevalence",26,"generic","fur",0.87,"zorbs","part"
11,4230,"implied_prevalence",27,"generic","curly fur",0.29,"grinks","vague"
11,2984,"implied_prevalence",28,"generic","silver legs",0.66,"moxes","color"
11,2808,"implied_prevalence",29,"generic","feathers",0.97,"kweps","part"
12,11837,"implied_prevalence",0,"generic","sore teeth",0.9,"morseths","accidental"
12,4129,"implied_prevalence",1,"generic","sore legs",0.9,"mooks","accidental"
12,4151,"implied_prevalence",2,"generic","violet skin",1,"taifels","color"
12,6770,"implied_prevalence",3,"generic","broken legs",0.2,"luzaks","disease"
12,2619,"implied_prevalence",4,"generic","skin",1,"zorbs","part"
12,4157,"implied_prevalence",5,"generic","dusty skin",1,"kazzes","accidental"
12,3160,"implied_prevalence",6,"generic","silver legs",1,"dorbs","color"
12,2740,"implied_prevalence",7,"generic","orange tails",1,"reesles","color"
12,2492,"implied_prevalence",8,"generic","legs",1,"stups","part"
12,6603,"implied_prevalence",9,"generic","wet fur",0.75,"daiths","accidental"
12,3670,"implied_prevalence",10,"generic","infected ears",0.2,"blins","disease"
12,2451,"implied_prevalence",11,"generic","long teeth",1,"crullets","vague"
12,2481,"implied_prevalence",12,"generic","claws",1,"sapers","part"
12,2329,"implied_prevalence",13,"generic","tails",1,"plovs","part"
12,2342,"implied_prevalence",14,"generic","big claws",1,"grinks","vague"
12,3180,"implied_prevalence",15,"generic","rotten teeth",0.8,"trufts","disease"
12,6701,"implied_prevalence",16,"generic","burned skin",0.9,"ackles","disease"
12,2254,"implied_prevalence",17,"generic","small ears",1,"ollers","vague"
12,3752,"implied_prevalence",18,"generic","cracked claws",0.93,"cheebas","accidental"
12,5547,"implied_prevalence",19,"generic","fungus-covered fur",0.94,"zoovs","disease"
12,2800,"implied_prevalence",20,"generic","pink teeth",1,"javs","color"
12,2809,"implied_prevalence",21,"generic","curly fur",1,"krivels","vague"
12,2469,"implied_prevalence",22,"generic","orange ears",1,"glippets","color"
12,1979,"implied_prevalence",23,"generic","purple feathers",1,"kweps","color"
12,2202,"implied_prevalence",24,"generic","long legs",1,"lorches","vague"
12,3042,"implied_prevalence",25,"generic","smooth feathers",1,"elleps","vague"
12,4685,"implied_prevalence",26,"generic","ears",1,"feps","part"
12,2667,"implied_prevalence",27,"generic","feathers",1,"moxes","part"
12,2826,"implied_prevalence",28,"generic","swollen ears",0.9,"frams","accidental"
12,2559,"implied_prevalence",29,"generic","torn feathers",0.9,"wugs","disease"
13,7255,"implied_prevalence",0,"generic","feathers",1,"krivels","part"
13,9039,"implied_prevalence",1,"generic","smooth feathers",0.85,"stups","vague"
13,8448,"implied_prevalence",2,"generic","burned skin",0.25,"javs","disease"
13,5224,"implied_prevalence",3,"generic","torn tails",0.1,"luzaks","disease"
13,7488,"implied_prevalence",4,"generic","pink teeth",0.95,"plovs","color"
13,4648,"implied_prevalence",5,"generic","big claws",1,"wugs","vague"
13,4487,"implied_prevalence",6,"generic","blue claws",0.95,"kazzes","color"
13,2647,"implied_prevalence",7,"generic","ears",1,"glippets","part"
13,5200,"implied_prevalence",8,"generic","cracked claws",0.15,"trufts","accidental"
13,2390,"implied_prevalence",9,"generic","legs",1,"dorbs","part"
13,4649,"implied_prevalence",10,"generic","orange tails",0.75,"mooks","color"
13,2567,"implied_prevalence",11,"generic","teeth",1,"feps","part"
13,7337,"implied_prevalence",12,"generic","fungus-covered fur",0.3,"reesles","disease"
13,6503,"implied_prevalence",13,"generic","broken legs",0.02,"cheebas","disease"
13,5241,"implied_prevalence",14,"generic","torn feathers",0.05,"zoovs","disease"
13,6224,"implied_prevalence",15,"generic","dusty skin",0.9,"grinks","accidental"
13,2368,"implied_prevalence",16,"generic","long tails",1,"pangolins","vague"
13,4960,"implied_prevalence",17,"generic","rough skin",1,"lorches","vague"
13,5245,"implied_prevalence",18,"generic","yellow fur",0.95,"taifels","color"
13,4635,"implied_prevalence",19,"generic","worn-out claws",0.15,"crullets","disease"
13,3640,"implied_prevalence",20,"generic","violet skin",0.95,"blins","color"
13,4135,"implied_prevalence",21,"generic","wet fur",0.5,"ackles","accidental"
13,5400,"implied_prevalence",22,"generic","purple feathers",0.9,"zorbs","color"
13,4328,"implied_prevalence",23,"generic","curly fur",1,"morseths","vague"
13,2536,"implied_prevalence",24,"generic","long teeth",1,"frams","vague"
13,3048,"implied_prevalence",25,"generic","claws",1,"ollers","part"
13,2496,"implied_prevalence",26,"generic","fur",1,"kweps","part"
13,5080,"implied_prevalence",27,"generic","sore teeth",0.1,"elleps","accidental"
13,4960,"implied_prevalence",28,"generic","sore legs",0.1,"thups","accidental"
13,4848,"implied_prevalence",29,"generic","itchy tails",0.05,"sapers","accidental"
14,7340,"implied_prevalence",0,"generic","teeth",0.92,"dorbs","part"
14,4264,"implied_prevalence",1,"generic","yellow fur",0.82,"blins","color"
14,4407,"implied_prevalence",2,"generic","itchy tails",0.63,"mooks","accidental"
14,4159,"implied_prevalence",3,"generic","small ears",0.92,"feps","vague"
14,5489,"implied_prevalence",4,"generic","rough skin",0.88,"taifels","vague"
14,6191,"implied_prevalence",5,"generic","broken legs",0.04,"sapers","disease"
14,3681,"implied_prevalence",6,"generic","long teeth",0.93,"pangolins","vague"
14,4648,"implied_prevalence",7,"generic","burned skin",0.05,"frams","disease"
14,6967,"implied_prevalence",8,"generic","legs",1,"cheebas","part"
14,3992,"implied_prevalence",9,"generic","violet skin",0.95,"krivels","color"
14,4120,"implied_prevalence",10,"generic","swollen ears",0.13,"ackles","accidental"
14,3927,"implied_prevalence",11,"generic","sore teeth",0.07,"elleps","accidental"
14,3865,"implied_prevalence",12,"generic","orange ears",0.93,"grinks","color"
14,3568,"implied_prevalence",13,"generic","fungus-covered fur",0.87,"trufts","disease"
14,3343,"implied_prevalence",14,"generic","tails",0.98,"stups","part"
14,3233,"implied_prevalence",15,"generic","long legs",0.96,"wugs","vague"
14,2983,"implied_prevalence",16,"generic","fur",0.99,"thups","part"
14,5384,"implied_prevalence",17,"generic","claws",0.99,"crullets","part"
14,3720,"implied_prevalence",18,"generic","blue claws",0.88,"kazzes","color"
14,4272,"implied_prevalence",19,"generic","ears",1,"glippets","part"
14,3663,"implied_prevalence",20,"generic","orange tails",0.96,"zoovs","color"
14,3977,"implied_prevalence",21,"generic","curly fur",0.95,"javs","vague"
14,3544,"implied_prevalence",22,"generic","big claws",0.95,"daiths","vague"
14,3928,"implied_prevalence",23,"generic","infected ears",0.1,"lorches","disease"
14,5456,"implied_prevalence",24,"generic","cracked claws",0.79,"kweps","accidental"
14,3551,"implied_prevalence",25,"generic","wet fur",0.99,"ollers","accidental"
14,4193,"implied_prevalence",26,"generic","torn tails",0.12,"morseths","disease"
14,3864,"implied_prevalence",27,"generic","torn feathers",0.12,"zorbs","disease"
14,2944,"implied_prevalence",28,"generic","pink teeth",0.83,"reesles","color"
14,3856,"implied_prevalence",29,"generic","dusty skin",0.95,"plovs","accidental"
15,6674,"implied_prevalence",0,"generic","sore teeth",1,"daiths","accidental"
15,6439,"implied_prevalence",1,"generic","cracked claws",1,"pangolins","accidental"
15,4052,"implied_prevalence",2,"generic","small ears",1,"kweps","vague"
15,6250,"implied_prevalence",3,"generic","smooth feathers",0.95,"cheebas","vague"
15,4132,"implied_prevalence",4,"generic","blue claws",1,"frams","color"
15,2426,"implied_prevalence",5,"generic","tails",1,"plovs","part"
15,3224,"implied_prevalence",6,"generic","itchy tails",0.9,"glippets","accidental"
15,2491,"implied_prevalence",7,"generic","big claws",1,"luzaks","vague"
15,3923,"implied_prevalence",8,"generic","infected ears",1,"ollers","disease"
15,4595,"implied_prevalence",9,"generic","worn-out claws",0.95,"thups","disease"
15,2513,"implied_prevalence",10,"generic","fur",1,"crullets","part"
15,5067,"implied_prevalence",11,"generic","long tails",0.99,"moxes","vague"
15,2499,"implied_prevalence",12,"generic","orange ears",1,"javs","color"
15,4043,"implied_prevalence",13,"generic","rough skin",1,"mooks","vague"
15,5100,"implied_prevalence",14,"generic","dusty skin",0.9,"morseths","accidental"
15,2261,"implied_prevalence",15,"generic","violet skin",1,"taifels","color"
15,2342,"implied_prevalence",16,"generic","orange tails",1,"kazzes","color"
15,4216,"implied_prevalence",17,"generic","torn tails",0.8,"blins","disease"
15,2065,"implied_prevalence",18,"generic","skin",1,"zorbs","part"
15,2870,"implied_prevalence",19,"generic","ears",1,"zoovs","part"
15,2031,"implied_prevalence",20,"generic","feathers",1,"grinks","part"
15,4879,"implied_prevalence",21,"generic","torn feathers",0.9,"krivels","disease"
15,2254,"implied_prevalence",22,"generic","long teeth",1,"stups","vague"
15,4761,"implied_prevalence",23,"generic","burned skin",0.9,"sapers","disease"
15,3300,"implied_prevalence",24,"generic","sore legs",0.88,"lorches","accidental"
15,2221,"implied_prevalence",25,"generic","teeth",1,"reesles","part"
15,1712,"implied_prevalence",26,"generic","silver legs",1,"wugs","color"
15,3262,"implied_prevalence",27,"generic","rotten teeth",0.9,"elleps","disease"
15,5624,"implied_prevalence",28,"generic","swollen ears",0.9,"trufts","accidental"
15,2063,"implied_prevalence",29,"generic","purple feathers",1,"feps","color"
16,5455,"implied_prevalence",0,"generic","swollen ears",0.08,"glippets","accidental"
16,5279,"implied_prevalence",1,"generic","tails",0.82,"lorches","part"
16,7496,"implied_prevalence",2,"generic","purple feathers",0.99,"javs","color"
16,7152,"implied_prevalence",3,"generic","fur",1,"thups","part"
16,7448,"implied_prevalence",4,"generic","long legs",0.95,"daiths","vague"
16,5726,"implied_prevalence",5,"generic","orange ears",0.9,"stups","color"
16,6855,"implied_prevalence",6,"generic","infected ears",0.94,"frams","disease"
16,8592,"implied_prevalence",7,"generic","broken legs",0.83,"feps","disease"
16,3983,"implied_prevalence",8,"generic","smooth feathers",0.95,"kweps","vague"
16,7520,"implied_prevalence",9,"generic","rotten teeth",0.81,"crullets","disease"
16,3272,"implied_prevalence",10,"generic","sore teeth",0.77,"mooks","accidental"
16,3528,"implied_prevalence",11,"generic","big claws",0.87,"pangolins","vague"
16,4392,"implied_prevalence",12,"generic","legs",1,"blins","part"
16,5001,"implied_prevalence",13,"generic","torn feathers",0.81,"kazzes","disease"
16,3567,"implied_prevalence",14,"generic","yellow fur",0.8,"trufts","color"
16,3576,"implied_prevalence",15,"generic","burned skin",0.73,"zorbs","disease"
16,3656,"implied_prevalence",16,"generic","teeth",0.91,"reesles","part"
16,3927,"implied_prevalence",17,"generic","small ears",0.88,"moxes","vague"
16,4736,"implied_prevalence",18,"generic","feathers",0.96,"zoovs","part"
16,3595,"implied_prevalence",19,"generic","cracked claws",0.77,"taifels","accidental"
16,4613,"implied_prevalence",20,"generic","orange tails",0.87,"ackles","color"
16,5488,"implied_prevalence",21,"generic","wet fur",0.6,"plovs","accidental"
16,4264,"implied_prevalence",22,"generic","silver legs",0.77,"krivels","color"
16,2672,"implied_prevalence",23,"generic","rough skin",0.75,"elleps","vague"
16,3968,"implied_prevalence",24,"generic","long tails",0.79,"sapers","vague"
16,3424,"implied_prevalence",25,"generic","violet skin",0.84,"dorbs","color"
16,3248,"implied_prevalence",26,"generic","itchy tails",0.75,"grinks","accidental"
16,4696,"implied_prevalence",27,"generic","worn-out claws",0.62,"ollers","disease"
16,3864,"implied_prevalence",28,"generic","skin",0.93,"cheebas","part"
16,4832,"implied_prevalence",29,"generic","dusty skin",0.72,"morseths","accidental"
17,5566,"implied_prevalence",0,"generic","sore legs",0.63,"cheebas","accidental"
17,3333,"implied_prevalence",1,"generic","torn tails",0.4,"kazzes","disease"
17,2721,"implied_prevalence",2,"generic","dusty skin",0.89,"dorbs","accidental"
17,3573,"implied_prevalence",3,"generic","skin",1,"crullets","part"
17,4262,"implied_prevalence",4,"generic","fungus-covered fur",0.91,"ollers","disease"
17,2384,"implied_prevalence",5,"generic","cracked claws",0.52,"kweps","accidental"
17,3747,"implied_prevalence",6,"generic","pink teeth",0.98,"glippets","color"
17,2637,"implied_prevalence",7,"generic","big claws",0.97,"trufts","vague"
17,2159,"implied_prevalence",8,"generic","rough skin",0.98,"blins","vague"
17,1936,"implied_prevalence",9,"generic","curly fur",0.87,"daiths","vague"
17,1727,"implied_prevalence",10,"generic","orange tails",0.67,"krivels","color"
17,3664,"implied_prevalence",11,"generic","long teeth",1,"pangolins","vague"
17,2575,"implied_prevalence",12,"generic","claws",0.92,"lorches","part"
17,2432,"implied_prevalence",13,"generic","tails",1,"frams","part"
17,2128,"implied_prevalence",14,"generic","fur",1,"sapers","part"
17,1962,"implied_prevalence",15,"generic","swollen ears",0.77,"stups","accidental"
17,2476,"implied_prevalence",16,"generic","long legs",0.89,"luzaks","vague"
17,1752,"implied_prevalence",17,"generic","violet skin",0.73,"zoovs","color"
17,2984,"implied_prevalence",18,"generic","feathers",1,"feps","part"
17,2000,"implied_prevalence",19,"generic","yellow fur",0.88,"mooks","color"
17,1950,"implied_prevalence",20,"generic","burned skin",0.52,"javs","disease"
17,2265,"implied_prevalence",21,"generic","infected ears",0.35,"taifels","disease"
17,2006,"implied_prevalence",22,"generic","ears",1,"wugs","part"
17,2914,"implied_prevalence",23,"generic","itchy tails",0.4,"zorbs","accidental"
17,2170,"implied_prevalence",24,"generic","purple feathers",0.81,"moxes","color"
17,1936,"implied_prevalence",25,"generic","sore teeth",0.27,"plovs","accidental"
17,2017,"implied_prevalence",26,"generic","torn feathers",0.32,"thups","disease"
17,2008,"implied_prevalence",27,"generic","silver legs",0.6,"elleps","color"
17,1654,"implied_prevalence",28,"generic","worn-out claws",0.33,"reesles","disease"
17,2671,"implied_prevalence",29,"generic","small ears",0.95,"morseths","vague"
18,13927,"implied_prevalence",0,"generic","broken legs",1,"dorbs","disease"
18,4159,"implied_prevalence",1,"generic","itchy tails",1,"lorches","accidental"
18,3265,"implied_prevalence",2,"generic","burned skin",1,"daiths","disease"
18,2327,"implied_prevalence",3,"generic","swollen ears",1,"morseths","accidental"
18,2088,"implied_prevalence",4,"generic","orange ears",1,"cheebas","color"
18,2231,"implied_prevalence",5,"generic","purple feathers",1,"grinks","color"
18,2976,"implied_prevalence",6,"generic","pink teeth",1,"sapers","color"
18,2920,"implied_prevalence",7,"generic","torn feathers",1,"feps","disease"
18,3456,"implied_prevalence",8,"generic","orange tails",1,"reesles","color"
18,2521,"implied_prevalence",9,"generic","small ears",1,"ackles","vague"
18,2687,"implied_prevalence",10,"generic","long legs",1,"ollers","vague"
18,2651,"implied_prevalence",11,"generic","teeth",1,"zoovs","part"
18,5196,"implied_prevalence",12,"generic","long tails",1,"krivels","vague"
18,2056,"implied_prevalence",13,"generic","silver legs",1,"taifels","color"
18,2840,"implied_prevalence",14,"generic","big claws",1,"luzaks","vague"
18,3697,"implied_prevalence",15,"generic","claws",1,"frams","part"
18,6080,"implied_prevalence",16,"generic","infected ears",1,"crullets","disease"
18,1680,"implied_prevalence",17,"generic","cracked claws",1,"blins","accidental"
18,1976,"implied_prevalence",18,"generic","feathers",1,"javs","part"
18,1656,"implied_prevalence",19,"generic","sore legs",1,"pangolins","accidental"
18,1879,"implied_prevalence",20,"generic","long teeth",1,"glippets","vague"
18,2018,"implied_prevalence",21,"generic","skin",1,"wugs","part"
18,2274,"implied_prevalence",22,"generic","violet skin",1,"elleps","color"
18,2832,"implied_prevalence",23,"generic","smooth feathers",1,"trufts","vague"
18,1759,"implied_prevalence",24,"generic","fur",1,"plovs","part"
18,1848,"implied_prevalence",25,"generic","worn-out claws",1,"mooks","disease"
18,1663,"implied_prevalence",26,"generic","rotten teeth",1,"kweps","disease"
18,2600,"implied_prevalence",27,"generic","wet fur",1,"stups","accidental"
18,1639,"implied_prevalence",28,"generic","tails",1,"zorbs","part"
18,1376,"implied_prevalence",29,"generic","muddy feathers",1,"moxes","accidental"
19,7583,"implied_prevalence",0,"generic","teeth",1,"mooks","part"
19,2317,"implied_prevalence",1,"generic","itchy tails",1,"zoovs","accidental"
19,4113,"implied_prevalence",2,"generic","long teeth",1,"javs","vague"
19,5361,"implied_prevalence",3,"generic","blue claws",0.64,"stups","color"
19,3701,"implied_prevalence",4,"generic","purple feathers",0.53,"kazzes","color"
19,3759,"implied_prevalence",5,"generic","torn feathers",0.12,"wugs","disease"
19,5801,"implied_prevalence",6,"generic","orange ears",0.66,"zorbs","color"
19,3342,"implied_prevalence",7,"generic","cracked claws",0.18,"frams","accidental"
19,7814,"implied_prevalence",8,"generic","sore teeth",0.12,"feps","accidental"
19,2505,"implied_prevalence",9,"generic","pink teeth",0.55,"cheebas","color"
19,4927,"implied_prevalence",10,"generic","burned skin",0.16,"grinks","disease"
19,2351,"implied_prevalence",11,"generic","fur",0.98,"luzaks","part"
19,2959,"implied_prevalence",12,"generic","torn tails",0.1,"sapers","disease"
19,4328,"implied_prevalence",13,"generic","curly fur",0.74,"kweps","vague"
19,3928,"implied_prevalence",14,"generic","ears",1,"moxes","part"
19,2662,"implied_prevalence",15,"generic","worn-out claws",0.16,"thups","disease"
19,3775,"implied_prevalence",16,"generic","broken legs",0.03,"taifels","disease"
19,3471,"implied_prevalence",17,"generic","feathers",1,"ackles","part"
19,1927,"implied_prevalence",18,"generic","dusty skin",0.07,"daiths","accidental"
19,3607,"implied_prevalence",19,"generic","sore legs",0.05,"pangolins","accidental"
19,2496,"implied_prevalence",20,"generic","big claws",0.92,"elleps","vague"
19,2526,"implied_prevalence",21,"generic","long legs",0.92,"plovs","vague"
19,6760,"implied_prevalence",22,"generic","claws",0.94,"reesles","part"
19,2819,"implied_prevalence",23,"generic","rough skin",0.77,"krivels","vague"
19,2061,"implied_prevalence",24,"generic","swollen ears",0.19,"lorches","accidental"
19,3960,"implied_prevalence",25,"generic","fungus-covered fur",0.2,"trufts","disease"
19,2471,"implied_prevalence",26,"generic","violet skin",0.62,"ollers","color"
19,2951,"implied_prevalence",27,"generic","tails",0.88,"dorbs","part"
19,5855,"implied_prevalence",28,"generic","silver legs",0.52,"blins","color"
19,2185,"implied_prevalence",29,"generic","small ears",0.91,"glippets","vague"
20,8628,"implied_prevalence",0,"generic","feathers",1,"reesles","part"
20,9473,"implied_prevalence",1,"generic","torn tails",1,"zoovs","disease"
20,6764,"implied_prevalence",2,"generic","silver legs",0.95,"lorches","color"
20,4187,"implied_prevalence",3,"generic","small ears",0.96,"kweps","vague"
20,6277,"implied_prevalence",4,"generic","sore teeth",0.5,"moxes","accidental"
20,4410,"implied_prevalence",5,"generic","teeth",1,"daiths","part"
20,4034,"implied_prevalence",6,"generic","yellow fur",0.93,"zorbs","color"
20,3516,"implied_prevalence",7,"generic","blue claws",0.89,"morseths","color"
20,5455,"implied_prevalence",8,"generic","swollen ears",0.81,"blins","accidental"
20,5258,"implied_prevalence",9,"generic","muddy feathers",0.65,"stups","accidental"
20,3820,"implied_prevalence",10,"generic","wet fur",0.34,"feps","accidental"
20,3947,"implied_prevalence",11,"generic","smooth feathers",0.97,"luzaks","vague"
20,4546,"implied_prevalence",12,"generic","violet skin",0.96,"plovs","color"
20,3441,"implied_prevalence",13,"generic","skin",1,"ollers","part"
20,4662,"implied_prevalence",14,"generic","pink teeth",0.9,"crullets","color"
20,4280,"implied_prevalence",15,"generic","fungus-covered fur",0.45,"krivels","disease"
20,3205,"implied_prevalence",16,"generic","rotten teeth",0.26,"sapers","disease"
20,4002,"implied_prevalence",17,"generic","worn-out claws",0.23,"elleps","disease"
20,2771,"implied_prevalence",18,"generic","cracked claws",0.24,"taifels","accidental"
20,4683,"implied_prevalence",19,"generic","long tails",0.95,"grinks","vague"
20,3553,"implied_prevalence",20,"generic","broken legs",0.04,"kazzes","disease"
20,3186,"implied_prevalence",21,"generic","torn feathers",0.18,"ackles","disease"
20,2618,"implied_prevalence",22,"generic","fur",0.99,"glippets","part"
20,2655,"implied_prevalence",23,"generic","tails",0.99,"pangolins","part"
20,3568,"implied_prevalence",24,"generic","legs",1,"cheebas","part"
20,4182,"implied_prevalence",25,"generic","long legs",0.94,"mooks","vague"
20,2838,"implied_prevalence",26,"generic","sore legs",0.21,"thups","accidental"
20,3176,"implied_prevalence",27,"generic","big claws",0.95,"javs","vague"
20,3570,"implied_prevalence",28,"generic","orange tails",0.84,"wugs","color"
20,5232,"implied_prevalence",29,"generic","long teeth",0.87,"trufts","vague"
21,10960,"implied_prevalence",0,"generic","rotten teeth",0.94,"frams","disease"
21,5573,"implied_prevalence",1,"generic","ears",1,"kazzes","part"
21,4809,"implied_prevalence",2,"generic","itchy tails",1,"luzaks","accidental"
21,3847,"implied_prevalence",3,"generic","claws",1,"javs","part"
21,3106,"implied_prevalence",4,"generic","long teeth",0.96,"sapers","vague"
21,4209,"implied_prevalence",5,"generic","worn-out claws",0.97,"trufts","disease"
21,2778,"implied_prevalence",6,"generic","smooth feathers",0.99,"thups","vague"
21,3186,"implied_prevalence",7,"generic","purple feathers",0.99,"glippets","color"
21,5920,"implied_prevalence",8,"generic","orange tails",0.98,"pangolins","color"
21,2923,"implied_prevalence",9,"generic","rough skin",1,"lorches","vague"
21,4070,"implied_prevalence",10,"generic","tails",0.99,"crullets","part"
21,2197,"implied_prevalence",11,"generic","big claws",0.98,"krivels","vague"
21,4493,"implied_prevalence",12,"generic","legs",1,"reesles","part"
21,3033,"implied_prevalence",13,"generic","muddy feathers",0.97,"feps","accidental"
21,2917,"implied_prevalence",14,"generic","teeth",0.98,"dorbs","part"
21,5373,"implied_prevalence",15,"generic","broken legs",0.99,"cheebas","disease"
21,4150,"implied_prevalence",16,"generic","curly fur",0.99,"stups","vague"
21,3319,"implied_prevalence",17,"generic","violet skin",0.98,"morseths","color"
21,5875,"implied_prevalence",18,"generic","yellow fur",0.99,"daiths","color"
21,3264,"implied_prevalence",19,"generic","torn feathers",0.98,"ackles","disease"
21,4700,"implied_prevalence",20,"generic","cracked claws",0.98,"zorbs","accidental"
21,3673,"implied_prevalence",21,"generic","swollen ears",1,"grinks","accidental"
21,2343,"implied_prevalence",22,"generic","dusty skin",0.98,"plovs","accidental"
21,2934,"implied_prevalence",23,"generic","pink teeth",0.96,"taifels","color"
21,4878,"implied_prevalence",24,"generic","fungus-covered fur",0.96,"mooks","disease"
21,2602,"implied_prevalence",25,"generic","long legs",0.98,"moxes","vague"
21,3179,"implied_prevalence",26,"generic","sore teeth",0.99,"blins","accidental"
21,3607,"implied_prevalence",27,"generic","burned skin",0.98,"elleps","disease"
21,4060,"implied_prevalence",28,"generic","feathers",1,"kweps","part"
21,3169,"implied_prevalence",29,"generic","orange ears",1,"wugs","color"
22,7187,"implied_prevalence",0,"generic","torn feathers",0.65,"kweps","disease"
22,5217,"implied_prevalence",1,"generic","violet skin",0.85,"wugs","color"
22,3816,"implied_prevalence",2,"generic","swollen ears",0.64,"daiths","accidental"
22,6760,"implied_prevalence",3,"generic","worn-out claws",0.4,"reesles","disease"
22,4289,"implied_prevalence",4,"generic","yellow fur",0.81,"cheebas","color"
22,3717,"implied_prevalence",5,"generic","fungus-covered fur",0.37,"frams","disease"
22,3049,"implied_prevalence",6,"generic","sore teeth",0.34,"dorbs","accidental"
22,3500,"implied_prevalence",7,"generic","sore legs",0.4,"taifels","accidental"
22,4349,"implied_prevalence",8,"generic","orange ears",0.85,"kazzes","color"
22,2999,"implied_prevalence",9,"generic","orange tails",0.87,"ollers","color"
22,4084,"implied_prevalence",10,"generic","fur",0.87,"trufts","part"
22,2766,"implied_prevalence",11,"generic","rotten teeth",0.2,"blins","disease"
22,3867,"implied_prevalence",12,"generic","itchy tails",0.27,"morseths","accidental"
22,3534,"implied_prevalence",13,"generic","feathers",0.95,"luzaks","part"
22,3317,"implied_prevalence",14,"generic","ears",0.98,"javs","part"
22,3750,"implied_prevalence",15,"generic","infected ears",0.27,"feps","disease"
22,2897,"implied_prevalence",16,"generic","blue claws",0.83,"thups","color"
22,2434,"implied_prevalence",17,"generic","legs",0.95,"elleps","part"
22,2967,"implied_prevalence",18,"generic","burned skin",0.4,"grinks","disease"
22,2467,"implied_prevalence",19,"generic","small ears",0.82,"crullets","vague"
22,4133,"implied_prevalence",20,"generic","big claws",0.82,"stups","vague"
22,4599,"implied_prevalence",21,"generic","cracked claws",0.39,"pangolins","accidental"
22,3502,"implied_prevalence",22,"generic","muddy feathers",0.28,"mooks","accidental"
22,2449,"implied_prevalence",23,"generic","tails",0.93,"glippets","part"
22,2761,"implied_prevalence",24,"generic","long legs",0.85,"ackles","vague"
22,2253,"implied_prevalence",25,"generic","silver legs",0.89,"moxes","color"
22,2919,"implied_prevalence",26,"generic","long teeth",0.87,"krivels","vague"
22,2734,"implied_prevalence",27,"generic","skin",0.97,"zorbs","part"
22,3581,"implied_prevalence",28,"generic","smooth feathers",0.83,"zoovs","vague"
22,2316,"implied_prevalence",29,"generic","long tails",0.91,"lorches","vague"
23,24315,"implied_prevalence",0,"generic","curly fur",1,"lorches","vague"
23,7201,"implied_prevalence",1,"generic","purple feathers",0.7,"zoovs","color"
23,9394,"implied_prevalence",2,"generic","smooth feathers",0.85,"morseths","vague"
23,9542,"implied_prevalence",3,"generic","sore teeth",0.8,"elleps","accidental"
23,9024,"implied_prevalence",4,"generic","sore legs",0.9,"feps","accidental"
23,8447,"implied_prevalence",5,"generic","pink teeth",0.9,"trufts","color"
23,13777,"implied_prevalence",6,"generic","skin",1,"zorbs","part"
23,7953,"implied_prevalence",7,"generic","long tails",0.9,"stups","vague"
23,7025,"implied_prevalence",8,"generic","claws",1,"javs","part"
23,6208,"implied_prevalence",9,"generic","infected ears",0.8,"daiths","disease"
23,8984,"implied_prevalence",10,"generic","torn feathers",0.8,"moxes","disease"
23,6060,"implied_prevalence",11,"generic","small ears",0.9,"thups","vague"
23,17024,"implied_prevalence",12,"generic","orange tails",0.95,"luzaks","color"
23,16403,"implied_prevalence",13,"generic","legs",0.95,"frams","part"
23,8787,"implied_prevalence",14,"generic","orange ears",0.9,"dorbs","color"
23,8993,"implied_prevalence",15,"generic","dusty skin",0.8,"kazzes","accidental"
23,10878,"implied_prevalence",16,"generic","torn tails",0.9,"reesles","disease"
23,7421,"implied_prevalence",17,"generic","rough skin",1,"pangolins","vague"
23,16636,"implied_prevalence",18,"generic","tails",0.95,"ollers","part"
23,8027,"implied_prevalence",19,"generic","broken legs",1,"grinks","disease"
23,4261,"implied_prevalence",20,"generic","yellow fur",0.8,"mooks","color"
23,8660,"implied_prevalence",21,"generic","itchy tails",0.85,"kweps","accidental"
23,5713,"implied_prevalence",22,"generic","long legs",1,"plovs","vague"
23,10829,"implied_prevalence",23,"generic","fur",0.9,"cheebas","part"
23,12611,"implied_prevalence",24,"generic","wet fur",0.8,"krivels","accidental"
23,7880,"implied_prevalence",25,"generic","burned skin",0.9,"wugs","disease"
23,8897,"implied_prevalence",26,"generic","violet skin",1,"crullets","color"
23,7484,"implied_prevalence",27,"generic","worn-out claws",1,"sapers","disease"
23,7250,"implied_prevalence",28,"generic","cracked claws",1,"blins","accidental"
23,6359,"implied_prevalence",29,"generic","ears",1,"glippets","part"
24,11085,"implied_prevalence",0,"generic","fur",1,"pangolins","part"
24,5774,"implied_prevalence",1,"generic","feathers",1,"glippets","part"
24,7456,"implied_prevalence",2,"generic","big claws",1,"plovs","vague"
24,9570,"implied_prevalence",3,"generic","rotten teeth",0.4,"mooks","disease"
24,8216,"implied_prevalence",4,"generic","muddy feathers",0.55,"kazzes","accidental"
24,8207,"implied_prevalence",5,"generic","burned skin",0.8,"lorches","disease"
24,3057,"implied_prevalence",6,"generic","skin",1,"ollers","part"
24,2832,"implied_prevalence",7,"generic","violet skin",1,"zorbs","color"
24,3312,"implied_prevalence",8,"generic","orange ears",1,"trufts","color"
24,8591,"implied_prevalence",9,"generic","long tails",0.9,"morseths","vague"
24,4481,"implied_prevalence",10,"generic","long teeth",0.9,"ackles","vague"
24,5496,"implied_prevalence",11,"generic","wet fur",0.5,"javs","accidental"
24,9003,"implied_prevalence",12,"generic","sore legs",0.5,"grinks","accidental"
24,3680,"implied_prevalence",13,"generic","rough skin",1,"reesles","vague"
24,3272,"implied_prevalence",14,"generic","purple feathers",1,"frams","color"
24,8479,"implied_prevalence",15,"generic","orange tails",1,"kweps","color"
24,3816,"implied_prevalence",16,"generic","yellow fur",1,"sapers","color"
24,4136,"implied_prevalence",17,"generic","ears",1,"blins","part"
24,3248,"implied_prevalence",18,"generic","legs",1,"luzaks","part"
24,5415,"implied_prevalence",19,"generic","torn tails",0.4,"zoovs","disease"
24,2743,"implied_prevalence",20,"generic","claws",1,"taifels","part"
24,4601,"implied_prevalence",21,"generic","torn feathers",0.4,"crullets","disease"
24,4080,"implied_prevalence",22,"generic","infected ears",0.3,"stups","disease"
24,3384,"implied_prevalence",23,"generic","blue claws",1,"moxes","color"
24,6456,"implied_prevalence",24,"generic","swollen ears",0.7,"thups","accidental"
24,4920,"implied_prevalence",25,"generic","small ears",0.9,"feps","vague"
24,8174,"implied_prevalence",26,"generic","cracked claws",0.85,"cheebas","accidental"
24,7336,"implied_prevalence",27,"generic","broken legs",0.15,"wugs","disease"
24,5208,"implied_prevalence",28,"generic","sore teeth",0.2,"dorbs","accidental"
24,2488,"implied_prevalence",29,"generic","long legs",1,"elleps","vague"
25,15260,"implied_prevalence",0,"generic","claws",0.95,"pangolins","part"
25,14016,"implied_prevalence",1,"generic","big claws",0.92,"reesles","vague"
25,28348,"implied_prevalence",2,"generic","orange ears",0.91,"wugs","color"
25,10220,"implied_prevalence",3,"generic","itchy tails",0.79,"zoovs","accidental"
25,6352,"implied_prevalence",4,"generic","rough skin",0.94,"dorbs","vague"
25,15127,"implied_prevalence",5,"generic","curly fur",0.9,"moxes","vague"
25,8880,"implied_prevalence",6,"generic","fur",0.96,"luzaks","part"
25,7160,"implied_prevalence",7,"generic","long legs",0.9,"frams","vague"
25,12825,"implied_prevalence",8,"generic","feathers",0.96,"mooks","part"
25,15839,"implied_prevalence",9,"generic","wet fur",0.71,"kazzes","accidental"
25,8839,"implied_prevalence",10,"generic","purple feathers",0.94,"ackles","color"
25,15167,"implied_prevalence",11,"generic","ears",0.99,"taifels","part"
25,8680,"implied_prevalence",12,"generic","sore teeth",0.35,"stups","accidental"
25,6585,"implied_prevalence",13,"generic","tails",0.98,"grinks","part"
25,10047,"implied_prevalence",14,"generic","silver legs",0.97,"plovs","color"
25,8112,"implied_prevalence",15,"generic","rotten teeth",0.35,"crullets","disease"
25,6319,"implied_prevalence",16,"generic","long tails",0.98,"cheebas","vague"
25,8497,"implied_prevalence",17,"generic","orange tails",0.96,"lorches","color"
25,10088,"implied_prevalence",18,"generic","small ears",0.98,"trufts","vague"
25,10663,"implied_prevalence",19,"generic","broken legs",0.08,"javs","disease"
25,10120,"implied_prevalence",20,"generic","burned skin",0.05,"krivels","disease"
25,7992,"implied_prevalence",21,"generic","torn feathers",0.04,"elleps","disease"
25,5960,"implied_prevalence",22,"generic","legs",0.96,"thups","part"
25,5632,"implied_prevalence",23,"generic","yellow fur",0.95,"morseths","color"
25,10879,"implied_prevalence",24,"generic","violet skin",0.94,"sapers","color"
25,27641,"implied_prevalence",25,"generic","swollen ears",0.08,"zorbs","accidental"
25,9231,"implied_prevalence",26,"generic","worn-out claws",0.12,"daiths","disease"
25,9439,"implied_prevalence",27,"generic","dusty skin",0.1,"kweps","accidental"
25,9728,"implied_prevalence",28,"generic","fungus-covered fur",0.04,"feps","disease"
25,4945,"implied_prevalence",29,"generic","cracked claws",0.04,"ollers","accidental"
26,5065,"implied_prevalence",0,"generic","smooth feathers",0.92,"frams","vague"
26,6342,"implied_prevalence",1,"generic","long tails",0.94,"javs","vague"
26,4357,"implied_prevalence",2,"generic","rotten teeth",0.8,"mooks","disease"
26,4074,"implied_prevalence",3,"generic","fungus-covered fur",0.8,"blins","disease"
26,4524,"implied_prevalence",4,"generic","swollen ears",0.92,"zoovs","accidental"
26,10209,"implied_prevalence",5,"generic","long teeth",0.95,"feps","vague"
26,3484,"implied_prevalence",6,"generic","wet fur",0.76,"stups","accidental"
26,39193,"implied_prevalence",7,"generic","feathers",1,"moxes","part"
26,4604,"implied_prevalence",8,"generic","sore legs",0.46,"daiths","accidental"
26,19338,"implied_prevalence",9,"generic","muddy feathers",0.76,"glippets","accidental"
26,4345,"implied_prevalence",10,"generic","big claws",0.62,"trufts","vague"
26,2976,"implied_prevalence",11,"generic","curly fur",0.96,"krivels","vague"
26,3245,"implied_prevalence",12,"generic","infected ears",0.58,"reesles","disease"
26,2534,"implied_prevalence",13,"generic","broken legs",0.35,"plovs","disease"
26,5182,"implied_prevalence",14,"generic","dusty skin",0.66,"zorbs","accidental"
26,3532,"implied_prevalence",15,"generic","long legs",1,"crullets","vague"
26,5121,"implied_prevalence",16,"generic","blue claws",0.81,"wugs","color"
26,4284,"implied_prevalence",17,"generic","itchy tails",0.22,"cheebas","accidental"
26,31666,"implied_prevalence",18,"generic","pink teeth",1,"taifels","color"
26,3912,"implied_prevalence",19,"generic","orange ears",0.89,"grinks","color"
26,3317,"implied_prevalence",20,"generic","skin",1,"pangolins","part"
26,3122,"implied_prevalence",21,"generic","orange tails",0.94,"ackles","color"
26,2641,"implied_prevalence",22,"generic","ears",1,"luzaks","part"
26,2417,"implied_prevalence",23,"generic","torn feathers",0.68,"ollers","disease"
26,2773,"implied_prevalence",24,"generic","burned skin",0.77,"kazzes","disease"
26,3030,"implied_prevalence",25,"generic","legs",0.83,"kweps","part"
26,198197,"implied_prevalence",26,"generic","claws",1,"thups","part"
26,2109,"implied_prevalence",27,"generic","yellow fur",0.88,"morseths","color"
26,3400,"implied_prevalence",28,"generic","purple feathers",0.89,"dorbs","color"
26,2828,"implied_prevalence",29,"generic","fur",1,"elleps","part"
27,9250,"implied_prevalence",0,"generic","pink teeth",0.94,"morseths","color"
27,6382,"implied_prevalence",1,"generic","smooth feathers",0.94,"lorches","vague"
27,5084,"implied_prevalence",2,"generic","fungus-covered fur",0.94,"plovs","disease"
27,5646,"implied_prevalence",3,"generic","blue claws",0.94,"moxes","color"
27,5919,"implied_prevalence",4,"generic","broken legs",0.86,"ackles","disease"
27,6132,"implied_prevalence",5,"generic","curly fur",0.94,"stups","vague"
27,5848,"implied_prevalence",6,"generic","muddy feathers",0.9,"frams","accidental"
27,5674,"implied_prevalence",7,"generic","swollen ears",0.86,"reesles","accidental"
27,2882,"implied_prevalence",8,"generic","burned skin",0.86,"sapers","disease"
27,2756,"implied_prevalence",9,"generic","long tails",0.94,"ollers","vague"
27,3519,"implied_prevalence",10,"generic","torn feathers",0.86,"cheebas","disease"
27,4111,"implied_prevalence",11,"generic","sore teeth",0.86,"thups","accidental"
27,4649,"implied_prevalence",12,"generic","skin",0.99,"kweps","part"
27,4668,"implied_prevalence",13,"generic","claws",0.94,"wugs","part"
27,9599,"implied_prevalence",14,"generic","ears",0.99,"elleps","part"
27,4210,"implied_prevalence",15,"generic","dusty skin",0.86,"krivels","accidental"
27,5640,"implied_prevalence",16,"generic","orange ears",0.86,"taifels","color"
27,3504,"implied_prevalence",17,"generic","yellow fur",0.94,"javs","color"
27,3095,"implied_prevalence",18,"generic","fur",0.94,"zorbs","part"
27,3131,"implied_prevalence",19,"generic","wet fur",0.9,"grinks","accidental"
27,3739,"implied_prevalence",20,"generic","sore legs",0.86,"pangolins","accidental"
27,3963,"implied_prevalence",21,"generic","rough skin",0.94,"feps","vague"
27,2749,"implied_prevalence",22,"generic","big claws",0.94,"glippets","vague"
27,2795,"implied_prevalence",23,"generic","teeth",0.99,"zoovs","part"
27,2617,"implied_prevalence",24,"generic","infected ears",0.86,"daiths","disease"
27,2949,"implied_prevalence",25,"generic","tails",0.97,"crullets","part"
27,3802,"implied_prevalence",26,"generic","torn tails",0.84,"trufts","disease"
27,2884,"implied_prevalence",27,"generic","violet skin",0.95,"kazzes","color"
27,2987,"implied_prevalence",28,"generic","silver legs",0.95,"luzaks","color"
27,2569,"implied_prevalence",29,"generic","long legs",0.96,"mooks","vague"
28,4601,"implied_prevalence",0,"generic","pink teeth",0.99,"luzaks","color"
28,6696,"implied_prevalence",1,"generic","claws",1,"cheebas","part"
28,4911,"implied_prevalence",2,"generic","burned skin",1,"stups","disease"
28,3575,"implied_prevalence",3,"generic","small ears",1,"feps","vague"
28,3776,"implied_prevalence",4,"generic","orange tails",1,"moxes","color"
28,4055,"implied_prevalence",5,"generic","muddy feathers",1,"kazzes","accidental"
28,3674,"implied_prevalence",6,"generic","broken legs",1,"plovs","disease"
28,3013,"implied_prevalence",7,"generic","legs",1,"kweps","part"
28,3319,"implied_prevalence",8,"generic","sore teeth",1,"ollers","accidental"
28,3391,"implied_prevalence",9,"generic","rotten teeth",1,"grinks","disease"
28,3662,"implied_prevalence",10,"generic","feathers",1,"daiths","part"
28,3695,"implied_prevalence",11,"generic","curly fur",1,"sapers","vague"
28,3617,"implied_prevalence",12,"generic","long teeth",1,"elleps","vague"
28,8703,"implied_prevalence",13,"generic","orange ears",0.9,"lorches","color"
28,3631,"implied_prevalence",14,"generic","sore legs",1,"pangolins","accidental"
28,6896,"implied_prevalence",15,"generic","big claws",0.96,"mooks","vague"
28,3215,"implied_prevalence",16,"generic","dusty skin",1,"glippets","accidental"
28,3183,"implied_prevalence",17,"generic","blue claws",1,"taifels","color"
28,2961,"implied_prevalence",18,"generic","rough skin",1,"zorbs","vague"
28,3958,"implied_prevalence",19,"generic","teeth",1,"morseths","part"
28,5551,"implied_prevalence",20,"generic","purple feathers",0.93,"ackles","color"
28,4001,"implied_prevalence",21,"generic","swollen ears",1,"javs","accidental"
28,3167,"implied_prevalence",22,"generic","fur",1,"trufts","part"
28,5446,"implied_prevalence",23,"generic","silver legs",0.95,"crullets","color"
28,2921,"implied_prevalence",24,"generic","wet fur",1,"krivels","accidental"
28,3182,"implied_prevalence",25,"generic","fungus-covered fur",1,"wugs","disease"
28,4191,"implied_prevalence",26,"generic","ears",1,"frams","part"
28,4120,"implied_prevalence",27,"generic","worn-out claws",0.97,"thups","disease"
28,10056,"implied_prevalence",28,"generic","infected ears",0.91,"dorbs","disease"
28,3472,"implied_prevalence",29,"generic","long tails",0.94,"zoovs","vague"
29,7143,"implied_prevalence",0,"generic","sore teeth",1,"luzaks","accidental"
29,6583,"implied_prevalence",1,"generic","worn-out claws",1,"krivels","disease"
29,4835,"implied_prevalence",2,"generic","fungus-covered fur",1,"ollers","disease"
29,4087,"implied_prevalence",3,"generic","itchy tails",1,"stups","accidental"
29,2895,"implied_prevalence",4,"generic","muddy feathers",1,"dorbs","accidental"
29,3408,"implied_prevalence",5,"generic","long tails",1,"thups","vague"
29,2552,"implied_prevalence",6,"generic","dusty skin",1,"morseths","accidental"
29,2713,"implied_prevalence",7,"generic","rotten teeth",1,"grinks","disease"
29,3799,"implied_prevalence",8,"generic","skin",1,"plovs","part"
29,3295,"implied_prevalence",9,"generic","long teeth",1,"frams","vague"
29,2992,"implied_prevalence",10,"generic","silver legs",1,"ackles","color"
29,2888,"implied_prevalence",11,"generic","legs",1,"mooks","part"
29,5201,"implied_prevalence",12,"generic","orange ears",1,"javs","color"
29,2672,"implied_prevalence",13,"generic","violet skin",1,"pangolins","color"
29,2415,"implied_prevalence",14,"generic","small ears",1,"trufts","vague"
29,2416,"implied_prevalence",15,"generic","orange tails",1,"taifels","color"
29,3432,"implied_prevalence",16,"generic","claws",1,"sapers","part"
29,2376,"implied_prevalence",17,"generic","tails",1,"reesles","part"
29,2393,"implied_prevalence",18,"generic","ears",1,"crullets","part"
29,2383,"implied_prevalence",19,"generic","teeth",1,"daiths","part"
29,3847,"implied_prevalence",20,"generic","smooth feathers",1,"lorches","vague"
29,3619,"implied_prevalence",21,"generic","sore legs",1,"zorbs","accidental"
29,2648,"implied_prevalence",22,"generic","broken legs",1,"kazzes","disease"
29,2368,"implied_prevalence",23,"generic","blue claws",1,"elleps","color"
29,3096,"implied_prevalence",24,"generic","purple feathers",1,"moxes","color"
29,2352,"implied_prevalence",25,"generic","torn tails",1,"glippets","disease"
29,2200,"implied_prevalence",26,"generic","cracked claws",1,"wugs","accidental"
29,3160,"implied_prevalence",27,"generic","rough skin",1,"feps","vague"
29,2824,"implied_prevalence",28,"generic","burned skin",1,"blins","disease"
29,2072,"implied_prevalence",29,"generic","curly fur",1,"zoovs","vague"
30,10110,"implied_prevalence",0,"generic","fungus-covered fur",1,"daiths","disease"
30,5313,"implied_prevalence",1,"generic","smooth feathers",1,"trufts","vague"
30,5927,"implied_prevalence",2,"generic","sore legs",0.88,"zorbs","accidental"
30,6213,"implied_prevalence",3,"generic","orange tails",0.99,"glippets","color"
30,7299,"implied_prevalence",4,"generic","rough skin",0.99,"crullets","vague"
30,5257,"implied_prevalence",5,"generic","wet fur",0.89,"grinks","accidental"
30,7043,"implied_prevalence",6,"generic","dusty skin",0.99,"kweps","accidental"
30,6767,"implied_prevalence",7,"generic","torn tails",0.98,"mooks","disease"
30,3616,"implied_prevalence",8,"generic","feathers",1,"ollers","part"
30,5039,"implied_prevalence",9,"generic","long teeth",0.99,"morseths","vague"
30,7092,"implied_prevalence",10,"generic","purple feathers",0.99,"krivels","color"
30,5504,"implied_prevalence",11,"generic","claws",1,"reesles","part"
30,3697,"implied_prevalence",12,"generic","itchy tails",0.95,"thups","accidental"
30,3485,"implied_prevalence",13,"generic","skin",1,"kazzes","part"
30,6932,"implied_prevalence",14,"generic","torn feathers",0.99,"sapers","disease"
30,3933,"implied_prevalence",15,"generic","blue claws",0.99,"frams","color"
30,3702,"implied_prevalence",16,"generic","muddy feathers",0.94,"luzaks","accidental"
30,3648,"implied_prevalence",17,"generic","big claws",0.94,"elleps","vague"
30,4114,"implied_prevalence",18,"generic","yellow fur",0.98,"taifels","color"
30,3901,"implied_prevalence",19,"generic","ears",1,"ackles","part"
30,4283,"implied_prevalence",20,"generic","fur",1,"zoovs","part"
30,3869,"implied_prevalence",21,"generic","sore teeth",0.79,"wugs","accidental"
30,4918,"implied_prevalence",22,"generic","curly fur",0.95,"feps","vague"
30,2331,"implied_prevalence",23,"generic","infected ears",0.9,"cheebas","disease"
30,2617,"implied_prevalence",24,"generic","rotten teeth",0.9,"javs","disease"
30,3076,"implied_prevalence",25,"generic","worn-out claws",0.88,"lorches","disease"
30,3530,"implied_prevalence",26,"generic","tails",0.99,"moxes","part"
30,3013,"implied_prevalence",27,"generic","long legs",0.96,"pangolins","vague"
30,3162,"implied_prevalence",28,"generic","silver legs",0.99,"stups","color"
30,4354,"implied_prevalence",29,"generic","violet skin",0.99,"plovs","color"
31,6807,"implied_prevalence",0,"generic","long teeth",0.55,"trufts","vague"
31,4863,"implied_prevalence",1,"generic","sore teeth",0.18,"lorches","accidental"
31,6449,"implied_prevalence",2,"generic","curly fur",0.11,"pangolins","vague"
31,6124,"implied_prevalence",3,"generic","ears",0.92,"zoovs","part"
31,10098,"implied_prevalence",4,"generic","legs",0.94,"frams","part"
31,3521,"implied_prevalence",5,"generic","blue claws",0.49,"plovs","color"
31,4109,"implied_prevalence",6,"generic","torn feathers",0.11,"elleps","disease"
31,5312,"implied_prevalence",7,"generic","fungus-covered fur",0.02,"javs","disease"
31,9034,"implied_prevalence",8,"generic","big claws",0.94,"crullets","vague"
31,18243,"implied_prevalence",9,"generic","skin",1,"wugs","part"
31,15581,"implied_prevalence",10,"generic","swollen ears",0.03,"ollers","accidental"
31,4504,"implied_prevalence",11,"generic","rotten teeth",0.04,"luzaks","disease"
31,5189,"implied_prevalence",12,"generic","silver legs",0.73,"reesles","color"
31,26038,"implied_prevalence",13,"generic","long tails",0.89,"mooks","vague"
31,8158,"implied_prevalence",14,"generic","pink teeth",0.53,"ackles","color"
31,4210,"implied_prevalence",15,"generic","smooth feathers",0.88,"morseths","vague"
31,10548,"implied_prevalence",16,"generic","purple feathers",0.94,"stups","color"
31,5254,"implied_prevalence",17,"generic","violet skin",0.93,"kazzes","color"
31,7415,"implied_prevalence",18,"generic","broken legs",0.04,"sapers","disease"
31,4696,"implied_prevalence",19,"generic","teeth",1,"grinks","part"
31,3571,"implied_prevalence",20,"generic","feathers",1,"kweps","part"
31,6357,"implied_prevalence",21,"generic","torn tails",0.05,"zorbs","disease"
31,16523,"implied_prevalence",22,"generic","long legs",0.92,"taifels","vague"
31,4825,"implied_prevalence",23,"generic","wet fur",0.11,"cheebas","accidental"
31,6082,"implied_prevalence",24,"generic","muddy feathers",0.05,"feps","accidental"
31,6492,"implied_prevalence",25,"generic","claws",1,"krivels","part"
31,6425,"implied_prevalence",26,"generic","worn-out claws",0.05,"dorbs","disease"
31,9545,"implied_prevalence",27,"generic","cracked claws",0.05,"thups","accidental"
31,4787,"implied_prevalence",28,"generic","dusty skin",0.1,"daiths","accidental"
31,6953,"implied_prevalence",29,"generic","orange ears",0.93,"glippets","color"
32,4497,"implied_prevalence",0,"generic","teeth",0.64,"stups","part"
32,2849,"implied_prevalence",1,"generic","small ears",0.57,"taifels","vague"
32,1544,"implied_prevalence",2,"generic","wet fur",0.68,"sapers","accidental"
32,2680,"implied_prevalence",3,"generic","yellow fur",0.65,"moxes","color"
32,4032,"implied_prevalence",4,"generic","torn feathers",0.63,"plovs","disease"
32,4122,"implied_prevalence",5,"generic","fur",0.68,"mooks","part"
32,2001,"implied_prevalence",6,"generic","broken legs",0.63,"frams","disease"
32,2042,"implied_prevalence",7,"generic","orange tails",0.71,"elleps","color"
32,4954,"implied_prevalence",8,"generic","muddy feathers",0.65,"ollers","accidental"
32,5321,"implied_prevalence",9,"generic","torn tails",0.69,"wugs","disease"
32,3768,"implied_prevalence",10,"generic","dusty skin",0.67,"trufts","accidental"
32,2315,"implied_prevalence",11,"generic","skin",0.66,"zoovs","part"
32,1890,"implied_prevalence",12,"generic","sore legs",0.67,"grinks","accidental"
32,2204,"implied_prevalence",13,"generic","claws",0.53,"krivels","part"
32,4454,"implied_prevalence",14,"generic","feathers",0.61,"dorbs","part"
32,1279,"implied_prevalence",15,"generic","long tails",0.6,"kazzes","vague"
32,2487,"implied_prevalence",16,"generic","rotten teeth",0.65,"feps","disease"
32,2065,"implied_prevalence",17,"generic","long legs",0.62,"ackles","vague"
32,1318,"implied_prevalence",18,"generic","violet skin",0.64,"thups","color"
32,2516,"implied_prevalence",19,"generic","rough skin",0.67,"javs","vague"
32,1600,"implied_prevalence",20,"generic","big claws",0.71,"crullets","vague"
32,1712,"implied_prevalence",21,"generic","long teeth",0.64,"luzaks","vague"
32,2233,"implied_prevalence",22,"generic","fungus-covered fur",0.72,"blins","disease"
32,2415,"implied_prevalence",23,"generic","sore teeth",0.67,"lorches","accidental"
32,1968,"implied_prevalence",24,"generic","worn-out claws",0.76,"glippets","disease"
32,2566,"implied_prevalence",25,"generic","orange ears",0.7,"kweps","color"
32,1640,"implied_prevalence",26,"generic","itchy tails",0.75,"morseths","accidental"
32,2329,"implied_prevalence",27,"generic","silver legs",0.73,"zorbs","color"
32,1521,"implied_prevalence",28,"generic","blue claws",0.71,"reesles","color"
32,2779,"implied_prevalence",29,"generic","ears",0.67,"daiths","part"
33,10247,"implied_prevalence",0,"generic","yellow fur",0.69,"mooks","color"
33,3400,"implied_prevalence",1,"generic","long legs",0.37,"blins","vague"
33,2127,"implied_prevalence",2,"generic","big claws",0.21,"stups","vague"
33,2216,"implied_prevalence",3,"generic","muddy feathers",0.58,"ackles","accidental"
33,2904,"implied_prevalence",4,"generic","small ears",0.5,"daiths","vague"
33,2239,"implied_prevalence",5,"generic","torn feathers",0.85,"zorbs","disease"
33,2136,"implied_prevalence",6,"generic","dusty skin",0.2,"lorches","accidental"
33,1513,"implied_prevalence",7,"generic","pink teeth",0.46,"reesles","color"
33,1544,"implied_prevalence",8,"generic","torn tails",0.68,"crullets","disease"
33,1344,"implied_prevalence",9,"generic","orange tails",0.31,"kweps","color"
33,4328,"implied_prevalence",10,"generic","fungus-covered fur",0.49,"pangolins","disease"
33,1870,"implied_prevalence",11,"generic","fur",0.14,"cheebas","part"
33,1833,"implied_prevalence",12,"generic","sore legs",0.55,"sapers","accidental"
33,1215,"implied_prevalence",13,"generic","silver legs",0.35,"grinks","color"
33,2007,"implied_prevalence",14,"generic","claws",0.76,"taifels","part"
33,1601,"implied_prevalence",15,"generic","burned skin",0.52,"morseths","disease"
33,2735,"implied_prevalence",16,"generic","swollen ears",0.81,"plovs","accidental"
33,1865,"implied_prevalence",17,"generic","violet skin",0.38,"zoovs","color"
33,1672,"implied_prevalence",18,"generic","teeth",0.56,"javs","part"
33,2072,"implied_prevalence",19,"generic","feathers",0.2,"moxes","part"
33,1434,"implied_prevalence",20,"generic","tails",0.75,"luzaks","part"
33,1326,"implied_prevalence",21,"generic","legs",0.47,"thups","part"
33,1352,"implied_prevalence",22,"generic","worn-out claws",0.51,"ollers","disease"
33,4120,"implied_prevalence",23,"generic","blue claws",0.36,"glippets","color"
33,1456,"implied_prevalence",24,"generic","rough skin",0.57,"dorbs","vague"
33,176489,"implied_prevalence",25,"generic","wet fur",0.44,"elleps","accidental"
33,2312,"implied_prevalence",26,"generic","long tails",0.66,"wugs","vague"
33,4024,"implied_prevalence",27,"generic","curly fur",0.39,"feps","vague"
33,1504,"implied_prevalence",28,"generic","cracked claws",0.49,"kazzes","accidental"
33,1561,"implied_prevalence",29,"generic","broken legs",0.74,"krivels","disease"
34,20917,"implied_prevalence",0,"generic","torn tails",0.18,"trufts","disease"
34,15732,"implied_prevalence",1,"generic","fur",0.95,"zorbs","part"
34,7349,"implied_prevalence",2,"generic","small ears",0.97,"luzaks","vague"
34,10342,"implied_prevalence",3,"generic","pink teeth",0.35,"ollers","color"
34,6538,"implied_prevalence",4,"generic","yellow fur",0.46,"stups","color"
34,9818,"implied_prevalence",5,"generic","long tails",0.53,"daiths","vague"
34,8424,"implied_prevalence",6,"generic","teeth",0.93,"sapers","part"
34,11664,"implied_prevalence",7,"generic","purple feathers",0.88,"pangolins","color"
34,696554,"implied_prevalence",8,"generic","infected ears",0.1,"wugs","disease"
34,5995,"implied_prevalence",9,"generic","curly fur",0.42,"moxes","vague"
34,5748,"implied_prevalence",10,"generic","dusty skin",0.12,"glippets","accidental"
34,8444,"implied_prevalence",11,"generic","rotten teeth",0.08,"kweps","disease"
34,5669,"implied_prevalence",12,"generic","fungus-covered fur",0.27,"cheebas","disease"
34,3880,"implied_prevalence",13,"generic","long teeth",0.4,"frams","vague"
34,4178,"implied_prevalence",14,"generic","long legs",0.61,"kazzes","vague"
34,4325,"implied_prevalence",15,"generic","itchy tails",0.2,"javs","accidental"
34,5570,"implied_prevalence",16,"generic","violet skin",0.4,"reesles","color"
34,6202,"implied_prevalence",17,"generic","muddy feathers",0.19,"crullets","accidental"
34,7545,"implied_prevalence",18,"generic","ears",1,"ackles","part"
34,8226,"implied_prevalence",19,"generic","blue claws",0.74,"morseths","color"
34,8878,"implied_prevalence",20,"generic","worn-out claws",0.33,"elleps","disease"
34,3576,"implied_prevalence",21,"generic","claws",0.98,"grinks","part"
34,3714,"implied_prevalence",22,"generic","sore legs",0.15,"mooks","accidental"
34,3732,"implied_prevalence",23,"generic","swollen ears",0.19,"feps","accidental"
34,4739,"implied_prevalence",24,"generic","feathers",0.8,"lorches","part"
34,3141,"implied_prevalence",25,"generic","skin",1,"blins","part"
34,5165,"implied_prevalence",26,"generic","big claws",0.5,"plovs","vague"
34,9304,"implied_prevalence",27,"generic","broken legs",0.09,"zoovs","disease"
34,4808,"implied_prevalence",28,"generic","cracked claws",0.18,"thups","accidental"
34,4405,"implied_prevalence",29,"generic","silver legs",0.24,"krivels","color"
35,5652,"implied_prevalence",0,"generic","broken legs",0.97,"moxes","disease"
35,2778,"implied_prevalence",1,"generic","tails",0.9,"pangolins","part"
35,3217,"implied_prevalence",2,"generic","curly fur",0.5,"frams","vague"
35,3027,"implied_prevalence",3,"generic","muddy feathers",0.23,"stups","accidental"
35,2929,"implied_prevalence",4,"generic","feathers",0.74,"dorbs","part"
35,3105,"implied_prevalence",5,"generic","rotten teeth",0.57,"wugs","disease"
35,3456,"implied_prevalence",6,"generic","fungus-covered fur",0.31,"kweps","disease"
35,2929,"implied_prevalence",7,"generic","torn feathers",0.24,"feps","disease"
35,2983,"implied_prevalence",8,"generic","worn-out claws",0.3,"krivels","disease"
35,2635,"implied_prevalence",9,"generic","cracked claws",0.24,"luzaks","accidental"
35,3299,"implied_prevalence",10,"generic","pink teeth",0.92,"daiths","color"
35,3104,"implied_prevalence",11,"generic","orange tails",0.85,"zorbs","color"
35,2562,"implied_prevalence",12,"generic","long legs",0.86,"crullets","vague"
35,3041,"implied_prevalence",13,"generic","sore legs",0.2,"mooks","accidental"
35,3583,"implied_prevalence",14,"generic","infected ears",0.09,"thups","disease"
35,2284,"implied_prevalence",15,"generic","smooth feathers",0.7,"javs","vague"
35,3379,"implied_prevalence",16,"generic","blue claws",0.93,"blins","color"
35,3950,"implied_prevalence",17,"generic","long tails",0.85,"taifels","vague"
35,4062,"implied_prevalence",18,"generic","skin",1,"morseths","part"
35,3056,"implied_prevalence",19,"generic","legs",1,"glippets","part"
35,3361,"implied_prevalence",20,"generic","claws",1,"trufts","part"
35,2288,"implied_prevalence",21,"generic","swollen ears",0.3,"ollers","accidental"
35,2971,"implied_prevalence",22,"generic","teeth",1,"grinks","part"
35,3048,"implied_prevalence",23,"generic","big claws",0.87,"cheebas","vague"
35,2811,"implied_prevalence",24,"generic","itchy tails",0.23,"elleps","accidental"
35,2334,"implied_prevalence",25,"generic","sore teeth",0.14,"reesles","accidental"
35,4131,"implied_prevalence",26,"generic","purple feathers",0.83,"lorches","color"
35,3484,"implied_prevalence",27,"generic","orange ears",0.77,"zoovs","color"
35,5635,"implied_prevalence",28,"generic","yellow fur",0.73,"kazzes","color"
35,2958,"implied_prevalence",29,"generic","rough skin",0.69,"ackles","vague"
36,16218,"implied_prevalence",0,"generic","claws",0.5,"javs","part"
36,9741,"implied_prevalence",1,"generic","big claws",0.75,"zoovs","vague"
36,6716,"implied_prevalence",2,"generic","itchy tails",0.5,"grinks","accidental"
36,7674,"implied_prevalence",3,"generic","dusty skin",0.5,"zorbs","accidental"
36,5894,"implied_prevalence",4,"generic","small ears",0.5,"cheebas","vague"
36,7413,"implied_prevalence",5,"generic","silver legs",0.5,"taifels","color"
36,5895,"implied_prevalence",6,"generic","long tails",0.5,"plovs","vague"
36,8270,"implied_prevalence",7,"generic","smooth feathers",0.25,"ackles","vague"
36,5927,"implied_prevalence",8,"generic","skin",1,"moxes","part"
36,5242,"implied_prevalence",9,"generic","ears",1,"glippets","part"
36,5534,"implied_prevalence",10,"generic","blue claws",0.5,"thups","color"
36,8078,"implied_prevalence",11,"generic","broken legs",0.1,"blins","disease"
36,5501,"implied_prevalence",12,"generic","fungus-covered fur",0.15,"luzaks","disease"
36,5693,"implied_prevalence",13,"generic","teeth",1,"trufts","part"
36,7177,"implied_prevalence",14,"generic","sore legs",0.1,"pangolins","accidental"
36,3364,"implied_prevalence",15,"generic","burned skin",0.1,"frams","disease"
36,4018,"implied_prevalence",16,"generic","tails",0.85,"feps","part"
36,3609,"implied_prevalence",17,"generic","worn-out claws",0.2,"daiths","disease"
36,4904,"implied_prevalence",18,"generic","orange tails",0.3,"ollers","color"
36,5388,"implied_prevalence",19,"generic","muddy feathers",0.1,"kazzes","accidental"
36,4249,"implied_prevalence",20,"generic","curly fur",0.5,"wugs","vague"
36,5741,"implied_prevalence",21,"generic","yellow fur",0.1,"crullets","color"
36,3869,"implied_prevalence",22,"generic","legs",0.9,"dorbs","part"
36,4208,"implied_prevalence",23,"generic","sore teeth",0.1,"stups","accidental"
36,4600,"implied_prevalence",24,"generic","purple feathers",0.15,"morseths","color"
36,2260,"implied_prevalence",25,"generic","rotten teeth",0.12,"sapers","disease"
36,4129,"implied_prevalence",26,"generic","wet fur",0.5,"elleps","accidental"
36,6694,"implied_prevalence",27,"generic","long legs",0.51,"mooks","vague"
36,2340,"implied_prevalence",28,"generic","pink teeth",0.14,"krivels","color"
36,2239,"implied_prevalence",29,"generic","infected ears",0.07,"lorches","disease"
37,4468,"implied_prevalence",0,"generic","yellow fur",0.58,"stups","color"
37,2725,"implied_prevalence",1,"generic","ears",0.76,"lorches","part"
37,3335,"implied_prevalence",2,"generic","sore legs",0.74,"plovs","accidental"
37,3611,"implied_prevalence",3,"generic","worn-out claws",0.56,"pangolins","disease"
37,2535,"implied_prevalence",4,"generic","fungus-covered fur",0.58,"blins","disease"
37,2511,"implied_prevalence",5,"generic","orange ears",0.82,"luzaks","color"
37,2046,"implied_prevalence",6,"generic","long legs",0.93,"krivels","vague"
37,5898,"implied_prevalence",7,"generic","small ears",0.97,"mooks","vague"
37,3391,"implied_prevalence",8,"generic","swollen ears",0.43,"frams","accidental"
37,2785,"implied_prevalence",9,"generic","silver legs",0.68,"zoovs","color"
37,2248,"implied_prevalence",10,"generic","infected ears",0.28,"reesles","disease"
37,8750,"implied_prevalence",11,"generic","skin",1,"elleps","part"
37,7191,"implied_prevalence",12,"generic","smooth feathers",0.68,"kweps","vague"
37,4032,"implied_prevalence",13,"generic","dusty skin",0.61,"sapers","accidental"
37,2085,"implied_prevalence",14,"generic","burned skin",0.35,"feps","disease"
37,1965,"implied_prevalence",15,"generic","rough skin",0.74,"dorbs","vague"
37,4999,"implied_prevalence",16,"generic","purple feathers",0.99,"daiths","color"
37,3174,"implied_prevalence",17,"generic","rotten teeth",0.45,"thups","disease"
37,3287,"implied_prevalence",18,"generic","long teeth",0.92,"trufts","vague"
37,2894,"implied_prevalence",19,"generic","blue claws",0.81,"grinks","color"
37,3166,"implied_prevalence",20,"generic","tails",0.97,"ollers","part"
37,2833,"implied_prevalence",21,"generic","broken legs",0.2,"morseths","disease"
37,2881,"implied_prevalence",22,"generic","big claws",0.87,"crullets","vague"
37,2324,"implied_prevalence",23,"generic","fur",0.72,"kazzes","part"
37,3366,"implied_prevalence",24,"generic","cracked claws",0.56,"glippets","accidental"
37,3959,"implied_prevalence",25,"generic","pink teeth",0.55,"javs","color"
37,2952,"implied_prevalence",26,"generic","sore teeth",0.3,"wugs","accidental"
37,3980,"implied_prevalence",27,"generic","feathers",0.72,"cheebas","part"
37,3595,"implied_prevalence",28,"generic","muddy feathers",0.54,"taifels","accidental"
37,2551,"implied_prevalence",29,"generic","claws",0.9,"moxes","part"
38,34618,"implied_prevalence",0,"generic","wet fur",0.77,"javs","accidental"
38,9311,"implied_prevalence",1,"generic","sore teeth",0.5,"luzaks","accidental"
38,10672,"implied_prevalence",2,"generic","long legs",0.99,"feps","vague"
38,5248,"implied_prevalence",3,"generic","infected ears",0.15,"grinks","disease"
38,4855,"implied_prevalence",4,"generic","pink teeth",0.8,"zoovs","color"
38,8424,"implied_prevalence",5,"generic","broken legs",0.1,"morseths","disease"
38,5408,"implied_prevalence",6,"generic","fungus-covered fur",0.75,"taifels","disease"
38,5888,"implied_prevalence",7,"generic","curly fur",0.75,"mooks","vague"
38,2408,"implied_prevalence",8,"generic","teeth",1,"elleps","part"
38,5552,"implied_prevalence",9,"generic","torn tails",0.1,"frams","disease"
38,5776,"implied_prevalence",10,"generic","cracked claws",0.05,"cheebas","accidental"
38,8688,"implied_prevalence",11,"generic","worn-out claws",0.5,"wugs","disease"
38,5256,"implied_prevalence",12,"generic","ears",1,"daiths","part"
38,4360,"implied_prevalence",13,"generic","swollen ears",0.5,"kweps","accidental"
38,7727,"implied_prevalence",14,"generic","yellow fur",0.75,"moxes","color"
38,5439,"implied_prevalence",15,"generic","blue claws",0.9,"trufts","color"
38,3080,"implied_prevalence",16,"generic","purple feathers",1,"ackles","color"
38,2039,"implied_prevalence",17,"generic","tails",1,"reesles","part"
38,4656,"implied_prevalence",18,"generic","silver legs",1,"kazzes","color"
38,4840,"implied_prevalence",19,"generic","orange ears",1,"plovs","color"
38,2943,"implied_prevalence",20,"generic","skin",0.99,"blins","part"
38,2599,"implied_prevalence",21,"generic","legs",1,"ollers","part"
38,5704,"implied_prevalence",22,"generic","rotten teeth",0.25,"crullets","disease"
38,4376,"implied_prevalence",23,"generic","dusty skin",0.5,"zorbs","accidental"
38,3472,"implied_prevalence",24,"generic","feathers",1,"dorbs","part"
38,2128,"implied_prevalence",25,"generic","small ears",1,"sapers","vague"
38,6280,"implied_prevalence",26,"generic","big claws",0.75,"krivels","vague"
38,6992,"implied_prevalence",27,"generic","itchy tails",0.5,"lorches","accidental"
38,3928,"implied_prevalence",28,"generic","long teeth",0.75,"pangolins","vague"
38,8088,"implied_prevalence",29,"generic","long tails",0.9,"stups","vague"
39,7036,"implied_prevalence",0,"generic","smooth feathers",0.9,"frams","vague"
39,6720,"implied_prevalence",1,"generic","itchy tails",0.9,"feps","accidental"
39,4632,"implied_prevalence",2,"generic","rough skin",0.94,"ollers","vague"
39,6496,"implied_prevalence",3,"generic","wet fur",0.6,"blins","accidental"
39,7416,"implied_prevalence",4,"generic","feathers",0.99,"cheebas","part"
39,5199,"implied_prevalence",5,"generic","long teeth",0.85,"reesles","vague"
39,9024,"implied_prevalence",6,"generic","swollen ears",0.85,"stups","accidental"
39,8257,"implied_prevalence",7,"generic","long legs",0.85,"mooks","vague"
39,5005,"implied_prevalence",8,"generic","claws",0.95,"sapers","part"
39,4675,"implied_prevalence",9,"generic","small ears",0.85,"taifels","vague"
39,6159,"implied_prevalence",10,"generic","orange ears",0.8,"zoovs","color"
39,4820,"implied_prevalence",11,"generic","skin",1,"pangolins","part"
39,4712,"implied_prevalence",12,"generic","tails",0.95,"morseths","part"
39,3108,"implied_prevalence",13,"generic","legs",1,"luzaks","part"
39,3976,"implied_prevalence",14,"generic","rotten teeth",0.9,"plovs","disease"
39,5504,"implied_prevalence",15,"generic","torn tails",0.9,"kazzes","disease"
39,5447,"implied_prevalence",16,"generic","long tails",0.85,"kweps","vague"
39,5680,"implied_prevalence",17,"generic","fur",0.95,"elleps","part"
39,4471,"implied_prevalence",18,"generic","orange tails",0.85,"krivels","color"
39,4792,"implied_prevalence",19,"generic","infected ears",0.7,"daiths","disease"
39,5337,"implied_prevalence",20,"generic","broken legs",0.05,"moxes","disease"
39,6215,"implied_prevalence",21,"generic","sore teeth",0.5,"lorches","accidental"
39,4685,"implied_prevalence",22,"generic","blue claws",0.85,"glippets","color"
39,5770,"implied_prevalence",23,"generic","fungus-covered fur",0.3,"wugs","disease"
39,4311,"implied_prevalence",24,"generic","purple feathers",0.8,"trufts","color"
39,4129,"implied_prevalence",25,"generic","violet skin",0.85,"thups","color"
39,4888,"implied_prevalence",26,"generic","pink teeth",0.8,"grinks","color"
39,3834,"implied_prevalence",27,"generic","muddy feathers",0.3,"javs","accidental"
39,4629,"implied_prevalence",28,"generic","worn-out claws",0.5,"dorbs","disease"
39,4383,"implied_prevalence",29,"generic","dusty skin",0.35,"zorbs","accidental"
